Trial Type, Money Option, Item Option, Trial Options, Choice 1, Choice 1 RT, Choice 2, Choice 2 RT, Decision Rating , Selected Option Rating, PostChoiceRT, Computer Response, Choosing For
4,0.5,6,1.0 0.5,0.5,7.55162909627e-06,$1.0,4.15340764448e-06,n/a,n/a,,1,1
8,1.75,6,0.5 0.75 1.75 1.5,1.75,5.28612872586e-06,$0.5,4.15337854065e-06,n/a,n/a,,1,2
4,1.0,6,1.0 1.5,1.0,5.28612872586e-06,$1.5,4.15340764448e-06,n/a,n/a,,1,1
2,1.5,6,..\..\JOCN-master\task a\images\keebler_vanilla_sugar_wafers.jpg ..\..\JOCN-master\task a\images\hersey_milk_chocolate.jpg ..\..\JOCN-master\task a\images\wheat_thins.jpg ..\..\JOCN-master\task a\images\twix_milk chocolate_cookie bars.jpg ..\..\JOCN-master\task a\images\nestle_butterfinger_cups.jpg ..\..\JOCN-master\task a\images\garden_veggie straws_zesty ranch.jpg,6,2.12052014074,..\..\JOCN-master\task a\images\hersey_milk_chocolate.jpg,3.04644059876,1,6,n/a,1,1
2,0.75,12,..\..\JOCN-master\task a\images\welch's_white_grape_raspberry.jpg ..\..\JOCN-master\task a\images\lays_kc masterpiece_barbecue chips.jpg ..\..\JOCN-master\task a\images\fiber one_oats and choc_chewy bar.jpg ..\..\JOCN-master\task a\images\sunchips_harvest cheddar_chips.jpg ..\..\JOCN-master\task a\images\kind bar_peanut butter_bar.jpg ..\..\JOCN-master\task a\images\krave_jerky_black_cherry_bbq.jpg ..\..\JOCN-master\task a\images\swedish fish_original_candy.jpg ..\..\JOCN-master\task a\images\fig_newtons.jpg ..\..\JOCN-master\task a\images\pringles_sour cream and onion_potato crisps.jpg ..\..\JOCN-master\task a\images\nestle_butterfinger_cups.jpg ..\..\JOCN-master\task a\images\pringles_the original_potato crisps.jpg ..\..\JOCN-master\task a\images\twix_milk chocolate_cookie bars.jpg,12,1.56347536301,..\..\JOCN-master\task a\images\twix_milk chocolate_cookie bars.jpg,1.86831516097,7,5,3.78179696176,0,1
5,1.5,3,1.25 1.0 1.75 0.5 1.5 0.75,1.5,1.13236826097,$1.75,1.68245044153,6,5,2.85487289296,0,2
1,1.75,12,..\..\JOCN-master\task a\images\krave_jerky_chili_lime.jpg ..\..\JOCN-master\task a\images\belvita_blueberry.JPG ..\..\JOCN-master\task a\images\keebler_vanilla_sugar_wafers.jpg ..\..\JOCN-master\task a\images\nature_valley_sweet_and_salty.jpg ..\..\JOCN-master\task a\images\garden_veggie straws_sea salt.jpg ..\..\JOCN-master\task a\images\belvita_golden_oats.JPG ..\..\JOCN-master\task a\images\krave_jerky_sweet_chipotle.jpg ..\..\JOCN-master\task a\images\3 musketeers_candy bar.jpg ..\..\JOCN-master\task a\images\kitkat_crisp wafers_milk choc.jpg ..\..\JOCN-master\task a\images\m&m's_milk_chocholate.jpg ..\..\JOCN-master\task a\images\pirates booty_aged white cheddar_ corn puffs.jpg ..\..\JOCN-master\task a\images\kettle_salt_vinegar.jpg,12,1.90896668489,..\..\JOCN-master\task a\images\3 musketeers_candy bar.jpg,1.15555476682,7,5,2.24303504292,0,1
4,1.75,12,1.5 1.75 1.25,1.75,6.04128581472e-06,$1.25,4.53100074083e-06,n/a,n/a,,1,1
7,1.0,12,1.0 0.75,1.0,5.6637218222e-06,$1.0,3.77581454813e-06,n/a,n/a,,1,2
5,0.75,3,..\..\JOCN-master\task a\images\pirates booty_aged white cheddar_ corn puffs.jpg ..\..\JOCN-master\task a\images\skittles_wild berry_candy.jpg ..\..\JOCN-master\task a\images\special_k_cracker_chips.jpg,3,0.862622746907,..\..\JOCN-master\task a\images\skittles_wild berry_candy.jpg,1.49421375702,7,6,3.15830846649,0,2
2,1.0,6,..\..\JOCN-master\task a\images\keebler_chips_deluxe.jpg ..\..\JOCN-master\task a\images\lance_toasty_with_pb.jpg ..\..\JOCN-master\task a\images\oreo_thin_crisps.jpg ..\..\JOCN-master\task a\images\nestle_butterfinger_cups.jpg ..\..\JOCN-master\task a\images\krave_jerky_sweet_chipotle.jpg ..\..\JOCN-master\task a\images\sun chips_french onion_chips.jpg,6,1.75170260799,..\..\JOCN-master\task a\images\keebler_chips_deluxe.jpg,n/a,3,3,n/a,1,1
5,1.75,2,0.5 1.75 1.25 1.0 0.75 1.5,1.75,1.17081055732,$1.75,1.24900044818,6,6,2.03204720368,0,2
6,0.75,2,..\..\JOCN-master\task a\images\lance_toasty_with_pb.jpg ..\..\JOCN-master\task a\images\nestle_butterfinger_bar.jpg,2,1.46460459509,..\..\JOCN-master\task a\images\nestle_butterfinger_bar.jpg,1.3613263219,6,3,2.39367181473,0,2
6,1.5,2,1.75 1.5,1.5,1.73487192634,$1.75,1.31557292092,6,5,1.50116313886,0,2
3,1.25,6,..\..\JOCN-master\task a\images\slim_jim.jpg ..\..\JOCN-master\task a\images\belvita_golden_oats.JPG ..\..\JOCN-master\task a\images\wheat_thins.jpg ..\..\JOCN-master\task a\images\skittles_wild berry_candy.jpg ..\..\JOCN-master\task a\images\belvita_blueberry.JPG ..\..\JOCN-master\task a\images\kettle_salt_vinegar.jpg,6,6.04128581472e-06,..\..\JOCN-master\task a\images\slim_jim.jpg,1.01946934592e-05,n/a,n/a,,1,1
8,1.0,6,1.5 1.0 1.75 0.75,1.0,5.66369271837e-06,$1.75,4.15337854065e-06,n/a,n/a,,1,2
1,0.75,3,..\..\JOCN-master\task a\images\special_k_pastry_crisps_strawberry.jpg ..\..\JOCN-master\task a\images\krave_jerky_original.jpg ..\..\JOCN-master\task a\images\ct_crunch_cereal_bar.jpg,3,1.17548199181,..\..\JOCN-master\task a\images\ct_crunch_cereal_bar.jpg,2.01694471115,5,4,3.25658492162,0,1
3,1.0,6,1.0 0.5 1.5,1.0,5.6637218222e-06,$0.5,3.77581454813e-06,n/a,n/a,,1,1
1,1.5,3,..\..\JOCN-master\task a\images\ct_crunch_cereal_bar.jpg ..\..\JOCN-master\task a\images\m&m's_peanut.jpg ..\..\JOCN-master\task a\images\nabisco_oreo_mini.jpg,3,1.10125066218,..\..\JOCN-master\task a\images\nabisco_oreo_mini.jpg,1.97664509295,6,6,2.49065656459,0,1
6,1.0,12,..\..\JOCN-master\task a\images\keebler_cheese_and_peanut_butter.jpg ..\..\JOCN-master\task a\images\kettle_jalepeno.jpg ..\..\JOCN-master\task a\images\this_popcorn_is_awesome_popcorn.jpg ..\..\JOCN-master\task a\images\sunchips_harvest cheddar_chips.jpg ..\..\JOCN-master\task a\images\pirates booty_aged white cheddar_ corn puffs.jpg ..\..\JOCN-master\task a\images\quaker_chewy_peanut butter choc chip.jpg ..\..\JOCN-master\task a\images\pepperidge farms-goldish-cheddar.jpg ..\..\JOCN-master\task a\images\starburst_verry berry_candy.jpg ..\..\JOCN-master\task a\images\special_k_pastry_crisps_blueberry.jpg ..\..\JOCN-master\task a\images\nestle_babyruth_bar.jpg ..\..\JOCN-master\task a\images\cheez-it_white_cheddar.JPG ..\..\JOCN-master\task a\images\kars_all_energy.jpg,12,2.02237055291,..\..\JOCN-master\task a\images\kettle_jalepeno.jpg,1.9382243187,6,3,2.75258501523,0,2
7,0.75,3,0.5 0.75 1.0,0.75,6.04131491855e-06,$1.0,3.77581454813e-06,n/a,n/a,,1,2
1,1.5,3,..\..\JOCN-master\task a\images\jacklinks_beef_steak.jpg ..\..\JOCN-master\task a\images\nature valley_oats and honey_crunchy.jpg ..\..\JOCN-master\task a\images\pirates booty_aged white cheddar_ corn puffs.jpg,3,1.5944789323,..\..\JOCN-master\task a\images\pirates booty_aged white cheddar_ corn puffs.jpg,2.11955051223,7,4,2.89167761966,0,1
8,0.5,2,..\..\JOCN-master\task a\images\hersheys_milk choc_almond.jpg ..\..\JOCN-master\task a\images\this_popcorn_is_awesome_aged_white_cheddar.jpg,2,6.41887891106e-06,..\..\JOCN-master\task a\images\this_popcorn_is_awesome_aged_white_cheddar.jpg,1.01946934592e-05,n/a,n/a,,1,2
1,1.75,2,0.5 1.5 1.75 0.75,1.75,1.55912789315,$1.75,1.38210159424,7,7,3.29315554799,0,1
7,1.0,3,..\..\JOCN-master\task a\images\nestle_butterfinger_cups.jpg ..\..\JOCN-master\task a\images\nabisco_oreo_mini.jpg ..\..\JOCN-master\task a\images\welch's_tropical_fruits.jpg,3,6.41887891106e-06,..\..\JOCN-master\task a\images\nabisco_oreo_mini.jpg,1.32153218146e-05,n/a,n/a,,1,2
3,0.5,6,..\..\JOCN-master\task a\images\kettle_salt_vinegar.jpg ..\..\JOCN-master\task a\images\kitkat_crisp wafers_milk choc.jpg ..\..\JOCN-master\task a\images\nutrigrain_blueberry_bar.jpg ..\..\JOCN-master\task a\images\cheetos_crunchy_chips.jpg ..\..\JOCN-master\task a\images\starburst_orignal_candy.jpg ..\..\JOCN-master\task a\images\kind bar_peanut butter_bar.jpg,6,6.04131491855e-06,..\..\JOCN-master\task a\images\cheetos_crunchy_chips.jpg,1.09498505481e-05,n/a,n/a,,1,1
2,1.75,3,1.75 0.75,1.75,1.40347193458,$1.75,0.715810872614,6,3,2.07801016222,0,1
8,0.75,6,..\..\JOCN-master\task a\images\kind_dark_chocolate.jpg ..\..\JOCN-master\task a\images\doritos_cool ranch_chips.jpg ..\..\JOCN-master\task a\images\belvita_blueberry.JPG ..\..\JOCN-master\task a\images\skittles_original_candy.jpg ..\..\JOCN-master\task a\images\ct_crunch_cereal_bar.jpg ..\..\JOCN-master\task a\images\special_k_pastry_crisps_blueberry.jpg,6,6.04128581472e-06,..\..\JOCN-master\task a\images\doritos_cool ranch_chips.jpg,1.05722865555e-05,n/a,n/a,,1,2
2,1.75,6,..\..\JOCN-master\task a\images\nuture valley_crunchy_bar.jpg ..\..\JOCN-master\task a\images\welch's_mixed fruit_fruit snacks.jpg ..\..\JOCN-master\task a\images\kettle_bbq.jpg ..\..\JOCN-master\task a\images\pirates booty_aged white cheddar_ corn puffs.jpg ..\..\JOCN-master\task a\images\nestle_crunch_bar.jpg ..\..\JOCN-master\task a\images\m&m's_peanut.jpg,6,1.53590023099,..\..\JOCN-master\task a\images\nestle_crunch_bar.jpg,1.96872192921,7,1,2.59838085633,0,1
5,1.5,3,1.5 0.75 1.25 0.5 1.75 1.0,1.5,1.70431465804,$1.75,1.18225504327,6,5,2.69402934637,0,2
7,1.25,2,..\..\JOCN-master\task a\images\quaker_chewy_peanut butter choc chip.jpg ..\..\JOCN-master\task a\images\nature_valley_chewy.jpg,2,6.79647200741e-06,..\..\JOCN-master\task a\images\nature_valley_chewy.jpg,1.24601938296e-05,n/a,n/a,,1,2
8,1.75,12,..\..\JOCN-master\task a\images\planters_honey roasted_peanuts.jpg ..\..\JOCN-master\task a\images\skittles_original_candy.jpg ..\..\JOCN-master\task a\images\nature_valley_sweet_and_salty.jpg ..\..\JOCN-master\task a\images\3 musketeers_candy bar.jpg ..\..\JOCN-master\task a\images\skittles_darkside_candy.jpg ..\..\JOCN-master\task a\images\kitkat_crisp wafers_milk choc.jpg ..\..\JOCN-master\task a\images\kars_mango pinapple_trail mix.jpg ..\..\JOCN-master\task a\images\kellogg's_rice krispies_orignal.jpg ..\..\JOCN-master\task a\images\nabisco_oreo_mini.jpg ..\..\JOCN-master\task a\images\starburst_verry berry_candy.jpg ..\..\JOCN-master\task a\images\jacklinks_beef_stick.jpg ..\..\JOCN-master\task a\images\starburst_orignal_candy.jpg,12,7.17403599992e-06,..\..\JOCN-master\task a\images\kars_mango pinapple_trail mix.jpg,1.09498505481e-05,n/a,n/a,,1,2
2,1.5,12,..\..\JOCN-master\task a\images\baked_lays_sour cream and onion.jpg ..\..\JOCN-master\task a\images\nuture valley_crunchy_bar.jpg ..\..\JOCN-master\task a\images\hersheys_milk choc_almond.jpg ..\..\JOCN-master\task a\images\twix_milk chocolate_cookie bars.jpg ..\..\JOCN-master\task a\images\this_popcorn_is_awesome_aged_white_cheddar.jpg ..\..\JOCN-master\task a\images\kars_mango pinapple_trail mix.jpg ..\..\JOCN-master\task a\images\nestle_babyruth_bar.jpg ..\..\JOCN-master\task a\images\keebler_chips delux_cookies_crackers.jpg ..\..\JOCN-master\task a\images\sun chips_garden salsa_chips.jpg ..\..\JOCN-master\task a\images\nabisco_oreo_mini.jpg ..\..\JOCN-master\task a\images\nutrigrain_strawberry_bar.jpg ..\..\JOCN-master\task a\images\krave_jerky_chili_lime.jpg,12,1.57745794972,..\..\JOCN-master\task a\images\baked_lays_sour cream and onion.jpg,1.62691466705,7,6,3.17895611638,0,1
5,1.25,2,..\..\JOCN-master\task a\images\keebler_cheese_and_peanut_butter.jpg ..\..\JOCN-master\task a\images\austin_peanut_butter.jpg,2,1.09057757462,..\..\JOCN-master\task a\images\keebler_cheese_and_peanut_butter.jpg,2.6895636936,6,1,2.33706937335,0,2
1,0.5,6,..\..\JOCN-master\task a\images\jacklinks_beef_steak.jpg ..\..\JOCN-master\task a\images\ct_crunch_cereal_bar.jpg ..\..\JOCN-master\task a\images\jacklinks_beef_jerky_original.jpg ..\..\JOCN-master\task a\images\reeses_peanut butter cups_milk choc.jpg ..\..\JOCN-master\task a\images\austin_peanut butter_cheese cracker.jpg ..\..\JOCN-master\task a\images\baked_lays_barbeque.jpg,6,1.07004810762,..\..\JOCN-master\task a\images\reeses_peanut butter cups_milk choc.jpg,1.95428322442,7,5,2.27758749781,0,1
1,1.5,12,..\..\JOCN-master\task a\images\fiber one_chocolate fudge_ brownie.jpg ..\..\JOCN-master\task a\images\this_popcorn_is_awesome_aged_white_cheddar.jpg ..\..\JOCN-master\task a\images\krave_jerky_black_cherry_bbq.jpg ..\..\JOCN-master\task a\images\nature valley_oats and honey_crunchy.jpg ..\..\JOCN-master\task a\images\planters_salted_peanuts.jpg ..\..\JOCN-master\task a\images\milkyway_orginal_candy.jpg ..\..\JOCN-master\task a\images\pringles_sour cream and onion_potato crisps.jpg ..\..\JOCN-master\task a\images\cheez itz_original.jpg ..\..\JOCN-master\task a\images\kind_almond_butter.jpg ..\..\JOCN-master\task a\images\kellogg's_rice krispies_orignal.jpg ..\..\JOCN-master\task a\images\kars_mango pinapple_trail mix.jpg ..\..\JOCN-master\task a\images\nutrigrain_blueberry_bar.jpg,12,1.22748436153,..\..\JOCN-master\task a\images\pringles_sour cream and onion_potato crisps.jpg,2.00286168786,7,5,2.58228796834,0,1
5,1.25,12,..\..\JOCN-master\task a\images\ritz_toasted_chips.jpg ..\..\JOCN-master\task a\images\pringles_the original_potato crisps.jpg ..\..\JOCN-master\task a\images\hersheys_milk choc_almond.jpg ..\..\JOCN-master\task a\images\baked_cheetos_crunchy.jpg ..\..\JOCN-master\task a\images\welch's_berry.jpg ..\..\JOCN-master\task a\images\nuture valley_crunchy_bar.jpg ..\..\JOCN-master\task a\images\snyders_mini_pretzels.jpg ..\..\JOCN-master\task a\images\sun chips_french onion_chips.jpg ..\..\JOCN-master\task a\images\sun chips_garden salsa_chips.jpg ..\..\JOCN-master\task a\images\kitkat_crisp wafers_milk choc.jpg ..\..\JOCN-master\task a\images\m&m's_milk_chocholate.jpg ..\..\JOCN-master\task a\images\this_popcorn_is_awesome_olive_oil.jpg,12,0.853575146408,..\..\JOCN-master\task a\images\m&m's_milk_chocholate.jpg,2.17054813841,7,4,2.05784808172,0,2
8,0.5,12,1.75 1.25 0.5 1.5 1.0 0.75,0.5,7.17403599992e-06,$1.0,3.77581454813e-06,n/a,n/a,,1,2
7,0.75,12,1.0 1.75 0.75 0.5,0.75,5.6637218222e-06,$0.75,3.77581454813e-06,n/a,n/a,,1,2
2,1.25,3,..\..\JOCN-master\task a\images\popchips_sea_salt.jpg ..\..\JOCN-master\task a\images\starburst_verry berry_candy.jpg ..\..\JOCN-master\task a\images\nutrigrain_apple cinnamon_bar.jpg,3,2.67911149104,..\..\JOCN-master\task a\images\nutrigrain_apple cinnamon_bar.jpg,2.95965884783,5,5,2.45282670495,0,1
4,0.5,12,0.5 1.5 1.75,0.5,5.66369271837e-06,$1.75,4.15340764448e-06,n/a,n/a,,1,1
2,1.5,12,..\..\JOCN-master\task a\images\sourpatchkids_original_candy.jpg ..\..\JOCN-master\task a\images\fiber one_oats and choc_chewy bar.jpg ..\..\JOCN-master\task a\images\special_k_pastry_crisps_strawberry.jpg ..\..\JOCN-master\task a\images\baked_ruffles_cheddar &sour.JPG ..\..\JOCN-master\task a\images\keebler_vanilla_sugar_wafers.jpg ..\..\JOCN-master\task a\images\jacklinks_beef_jerky_original.jpg ..\..\JOCN-master\task a\images\hersheys_milk choc_almond.jpg ..\..\JOCN-master\task a\images\starburst_orignal_candy.jpg ..\..\JOCN-master\task a\images\cheez itz_original.jpg ..\..\JOCN-master\task a\images\krave_jerky_original.jpg ..\..\JOCN-master\task a\images\keebler_cheese_and_peanut_butter.jpg ..\..\JOCN-master\task a\images\starburst_verry berry_candy.jpg,12,0.976789706532,..\..\JOCN-master\task a\images\keebler_vanilla_sugar_wafers.jpg,2.52934391116,6,5,2.91330547034,0,1
5,1.0,6,..\..\JOCN-master\task a\images\twix_milk chocolate_cookie bars.jpg ..\..\JOCN-master\task a\images\hersey_milk_chocolate.jpg ..\..\JOCN-master\task a\images\reeses_peanut butter cups_milk choc.jpg ..\..\JOCN-master\task a\images\oreo_thin_crisps.jpg ..\..\JOCN-master\task a\images\nature_valley_chewy.jpg ..\..\JOCN-master\task a\images\nature_valley_sweet_and_salty.jpg,6,0.824145713093,..\..\JOCN-master\task a\images\reeses_peanut butter cups_milk choc.jpg,1.54911368477,5,5,2.31308994701,0,2
7,1.25,12,..\..\JOCN-master\task a\images\nutrigrain_blueberry_bar.jpg ..\..\JOCN-master\task a\images\this_popcorn_is_awesome_aged_white_cheddar.jpg ..\..\JOCN-master\task a\images\planters_salted_peanuts.jpg ..\..\JOCN-master\task a\images\wheat_thins.jpg ..\..\JOCN-master\task a\images\nabisco_ritz bits_cookies.jpg ..\..\JOCN-master\task a\images\poptarts_strawberry_frosted.jpg ..\..\JOCN-master\task a\images\belvita_blueberry.JPG ..\..\JOCN-master\task a\images\nabisco_nutter butter_cookies and crackers.jpg ..\..\JOCN-master\task a\images\this_popcorn_is_awesome_olive_oil.jpg ..\..\JOCN-master\task a\images\m&m's_peanut.jpg ..\..\JOCN-master\task a\images\austin_cheddar cheese_cheese cracker.jpg ..\..\JOCN-master\task a\images\kettle_bbq.jpg,12,5.6637218222e-06,..\..\JOCN-master\task a\images\planters_salted_peanuts.jpg,9.81710036285e-06,n/a,n/a,,1,2
7,0.5,12,1.25 0.5 1.75 0.75 1.5 1.0,0.5,5.28612872586e-06,$0.75,4.15337854065e-06,n/a,n/a,,1,2
5,1.75,12,..\..\JOCN-master\task a\images\sourpatchkids_original_candy.jpg ..\..\JOCN-master\task a\images\kettle_jalepeno.jpg ..\..\JOCN-master\task a\images\keebler_vanilla_sugar_wafers.jpg ..\..\JOCN-master\task a\images\welch's_mixed fruit_fruit snacks.jpg ..\..\JOCN-master\task a\images\poptarts_strawberry_frosted.jpg ..\..\JOCN-master\task a\images\keebler_fudge_stripes.jpg ..\..\JOCN-master\task a\images\doritos_nacho cheesier_chips.jpg ..\..\JOCN-master\task a\images\combos_cheddar cheese_pretzel.jpg ..\..\JOCN-master\task a\images\belvita_blueberry.JPG ..\..\JOCN-master\task a\images\skittles_sour_candy.jpg ..\..\JOCN-master\task a\images\reeses_peanut butter cups_milk choc.jpg ..\..\JOCN-master\task a\images\teddy_grahams_chocolate.jpg,12,0.995951952034,..\..\JOCN-master\task a\images\sourpatchkids_original_candy.jpg,2.07013797195,6,1,2.12534978177,0,2
7,1.25,3,0.75 1.25 0.5,1.25,6.41887891106e-06,$0.75,4.15337854065e-06,n/a,n/a,,1,2
6,1.75,3,..\..\JOCN-master\task a\images\special_k_pastry_crisps_blueberry.jpg ..\..\JOCN-master\task a\images\fiber one_chocolate fudge_ brownie.jpg ..\..\JOCN-master\task a\images\poptarts_strawberry_frosted.jpg,3,0.994590394257,..\..\JOCN-master\task a\images\special_k_pastry_crisps_blueberry.jpg,1.77766584593,4,3,2.6933780188,0,2
8,1.0,12,..\..\JOCN-master\task a\images\belvita_blueberry.JPG ..\..\JOCN-master\task a\images\welch's_berry.jpg ..\..\JOCN-master\task a\images\welch's_white_grape_raspberry.jpg ..\..\JOCN-master\task a\images\hersheys_milk choc_almond.jpg ..\..\JOCN-master\task a\images\krave_jerky_black_cherry_bbq.jpg ..\..\JOCN-master\task a\images\keebler_chips delux_cookies_crackers.jpg ..\..\JOCN-master\task a\images\pringles_cheddar_potato crisps.jpg ..\..\JOCN-master\task a\images\nabisco_ritz bits_cookies.jpg ..\..\JOCN-master\task a\images\quaker_chewy_peanut butter choc chip.jpg ..\..\JOCN-master\task a\images\belvita_golden_oats.JPG ..\..\JOCN-master\task a\images\nabisco_teddy graham_honey.jpg ..\..\JOCN-master\task a\images\nestle_butterfinger_bar.jpg,12,5.6637218222e-06,..\..\JOCN-master\task a\images\nabisco_ritz bits_cookies.jpg,1.32153218146e-05,n/a,n/a,,1,2
1,1.25,3,..\..\JOCN-master\task a\images\wheat_thins.jpg ..\..\JOCN-master\task a\images\twix_milk chocolate_cookie bars.jpg ..\..\JOCN-master\task a\images\welch's_berry.jpg,3,1.57453282824,..\..\JOCN-master\task a\images\wheat_thins.jpg,1.76377048049,6,4,2.44226613658,0,1
5,1.25,2,..\..\JOCN-master\task a\images\kettle_original.jpg ..\..\JOCN-master\task a\images\jacklinks_beef_jerky_original.jpg,2,0.904670566058,..\..\JOCN-master\task a\images\kettle_original.jpg,1.20875142585,4,4,2.28023547473,0,2
3,1.0,6,..\..\JOCN-master\task a\images\lance_captain_wafers_with_honey_and_pb.JPG ..\..\JOCN-master\task a\images\haribo_gold_bears.jpg ..\..\JOCN-master\task a\images\pringles_cheddar_potato crisps.jpg ..\..\JOCN-master\task a\images\nabisco_ritz bits_cookies.jpg ..\..\JOCN-master\task a\images\milkyway_orginal_candy.jpg ..\..\JOCN-master\task a\images\kars_mango pinapple_trail mix.jpg,6,6.41887891106e-06,..\..\JOCN-master\task a\images\lance_captain_wafers_with_honey_and_pb.JPG,1.17050076369e-05,n/a,n/a,,1,1
6,1.5,3,1.5 0.75,1.5,1.51527297043,$1.5,1.83205754941,7,6,3.0692053464,0,2
3,1.25,2,1.5 0.75 1.0 1.75 0.5 1.25,1.25,6.41887891106e-06,$1.25,4.15340764448e-06,n/a,n/a,,1,1
7,1.25,2,1.75 1.25 0.5 1.0 1.5 0.75,1.25,6.79647200741e-06,$1.0,4.530971637e-06,n/a,n/a,,1,2
5,1.75,6,..\..\JOCN-master\task a\images\kars_mango pinapple_trail mix.jpg ..\..\JOCN-master\task a\images\poptarts_strawberry_frosted.jpg ..\..\JOCN-master\task a\images\popchips_sea_salt.jpg ..\..\JOCN-master\task a\images\krave_jerky_black_cherry_bbq.jpg ..\..\JOCN-master\task a\images\this_popcorn_is_awesome_olive_oil.jpg ..\..\JOCN-master\task a\images\hersey_milk_chocolate.jpg,6,0.83597910768,..\..\JOCN-master\task a\images\hersey_milk_chocolate.jpg,1.63640026172,7,6,3.08259097722,0,2
6,1.75,3,..\..\JOCN-master\task a\images\kettle_bbq.jpg ..\..\JOCN-master\task a\images\grandmas_chocolate chip_cookies.jpg ..\..\JOCN-master\task a\images\quaker_chewy_peanut butter choc chip.jpg,3,1.42076817385,..\..\JOCN-master\task a\images\kettle_bbq.jpg,1.7715354377,5,6,3.96530935037,0,2
5,0.5,12,..\..\JOCN-master\task a\images\cheez-it_white_cheddar.JPG ..\..\JOCN-master\task a\images\doritos_cool ranch_chips.jpg ..\..\JOCN-master\task a\images\milkyway_orginal_candy.jpg ..\..\JOCN-master\task a\images\nutrigrain_apple cinnamon_bar.jpg ..\..\JOCN-master\task a\images\nabisco_nutter butter_cookies and crackers.jpg ..\..\JOCN-master\task a\images\jacklinks_beef_steak.jpg ..\..\JOCN-master\task a\images\chex mix_original_traditional.jpg ..\..\JOCN-master\task a\images\lance_van-o_cookies.jpg ..\..\JOCN-master\task a\images\ct_crunch_cereal_bar.jpg ..\..\JOCN-master\task a\images\kettle_original.jpg ..\..\JOCN-master\task a\images\krave_jerky_black_cherry_bbq.jpg ..\..\JOCN-master\task a\images\keebler_vanilla_sugar_wafers.jpg,12,1.64352068785,..\..\JOCN-master\task a\images\keebler_vanilla_sugar_wafers.jpg,2.64059330089,6,7,3.08707626423,0,2
1,1.25,3,..\..\JOCN-master\task a\images\pringles_cheddar_potato crisps.jpg ..\..\JOCN-master\task a\images\kind_dark_chocolate.jpg ..\..\JOCN-master\task a\images\pepperidge farms-goldish-cheddar.jpg,3,1.79001010783,..\..\JOCN-master\task a\images\pepperidge farms-goldish-cheddar.jpg,3.51023754766,5,3,4.17218079945,0,1
5,0.75,12,..\..\JOCN-master\task a\images\fritos_original_corn chips.jpg ..\..\JOCN-master\task a\images\quaker_chewy_peanut butter choc chip.jpg ..\..\JOCN-master\task a\images\krave_jerky_black_cherry_bbq.jpg ..\..\JOCN-master\task a\images\baked_lays_barbeque.jpg ..\..\JOCN-master\task a\images\mini_fudge_stripes.jpg ..\..\JOCN-master\task a\images\pringles_the original_potato crisps.jpg ..\..\JOCN-master\task a\images\sun chips_french onion_chips.jpg ..\..\JOCN-master\task a\images\this_popcorn_is_awesome_olive_oil.jpg ..\..\JOCN-master\task a\images\jacklinks_beef_jerky_original.jpg ..\..\JOCN-master\task a\images\sun chips_garden salsa_chips.jpg ..\..\JOCN-master\task a\images\skittles_sour_candy.jpg ..\..\JOCN-master\task a\images\pepperidge farms-goldish-cheddar.jpg,12,1.46335442376,..\..\JOCN-master\task a\images\fritos_original_corn chips.jpg,2.81751652012,6,1,3.17892590989,0,2
2,1.25,6,1.25 1.5,1.25,2.20462484099,$1.25,1.38270383628,5,3,3.15795731597,0,1
5,1.5,12,..\..\JOCN-master\task a\images\welch's_mixed fruit_fruit snacks.jpg ..\..\JOCN-master\task a\images\baked_lays_sour cream and onion.jpg ..\..\JOCN-master\task a\images\nature_valley_chewy.jpg ..\..\JOCN-master\task a\images\oreo_thin_crisps.jpg ..\..\JOCN-master\task a\images\nutrigrain_strawberry_bar.jpg ..\..\JOCN-master\task a\images\welch's_white_grape_raspberry.jpg ..\..\JOCN-master\task a\images\kind_almond_butter.jpg ..\..\JOCN-master\task a\images\snyders_mini_pretzels.jpg ..\..\JOCN-master\task a\images\pringles_cheddar_potato crisps.jpg ..\..\JOCN-master\task a\images\m&m's_milk_chocholate.jpg ..\..\JOCN-master\task a\images\sun chips_french onion_chips.jpg ..\..\JOCN-master\task a\images\milkyway_orginal_candy.jpg,12,2.69816423798,..\..\JOCN-master\task a\images\m&m's_milk_chocholate.jpg,1.52177869438,4,4,2.64116344848,0,2
7,1.25,3,1.25 0.5,1.25,6.41887891106e-06,$1.25,4.15337854065e-06,n/a,n/a,,1,2
6,1.25,3,1.0 1.25 1.5 1.75,1.25,1.27689765699,$1.75,1.09931555856,5,5,3.12359742748,0,2
7,0.5,12,0.5 0.75 1.75,0.5,6.04131491855e-06,$1.75,4.15340764448e-06,n/a,n/a,,1,2
2,1.25,6,..\..\JOCN-master\task a\images\welch's_berry.jpg ..\..\JOCN-master\task a\images\wheat_thins.jpg ..\..\JOCN-master\task a\images\fig_newtons.jpg ..\..\JOCN-master\task a\images\skittles_darkside_candy.jpg ..\..\JOCN-master\task a\images\fiber one_oats and choc_chewy bar.jpg ..\..\JOCN-master\task a\images\krave_jerky_original.jpg,6,1.50919617873,..\..\JOCN-master\task a\images\fig_newtons.jpg,3.15892694445,5,2,3.81629428981,0,1
1,0.5,2,..\..\JOCN-master\task a\images\oreo_thin_crisps.jpg ..\..\JOCN-master\task a\images\3 musketeers_candy bar.jpg,2,1.319121429,..\..\JOCN-master\task a\images\3 musketeers_candy bar.jpg,1.09679444897,7,5,3.28426804187,0,1
6,1.5,3,1.0 1.5 1.75,1.5,1.29652546011,$1.75,1.74975919758,1,4,n/a,1,2
7,1.0,2,..\..\JOCN-master\task a\images\lance_toast_cheese_with_pb.JPG ..\..\JOCN-master\task a\images\jacklinks_beef_steak.jpg,2,6.79647200741e-06,..\..\JOCN-master\task a\images\lance_toast_cheese_with_pb.JPG,1.13274436444e-05,n/a,n/a,,1,2
8,1.25,3,1.25 0.75,1.25,5.28612872586e-06,$0.75,4.15340764448e-06,n/a,n/a,,1,2
5,0.5,6,..\..\JOCN-master\task a\images\welch's_tropical_fruits.jpg ..\..\JOCN-master\task a\images\nabisco_oreo_mini.jpg ..\..\JOCN-master\task a\images\keebler_vanilla_sugar_wafers.jpg ..\..\JOCN-master\task a\images\barnum's_animal_crackers.jpg ..\..\JOCN-master\task a\images\nature_valley_chewy.jpg ..\..\JOCN-master\task a\images\sun chips_garden salsa_chips.jpg,6,1.14064559588,..\..\JOCN-master\task a\images\nabisco_oreo_mini.jpg,1.83275116608,6,5,3.2163249494,0,2
5,1.0,12,..\..\JOCN-master\task a\images\garden_veggie straws_sea salt.jpg ..\..\JOCN-master\task a\images\keebler_fudge_stripes.jpg ..\..\JOCN-master\task a\images\special_k_cracker_chips.jpg ..\..\JOCN-master\task a\images\keebler_cheese_and_peanut_butter.jpg ..\..\JOCN-master\task a\images\skittles_sour_candy.jpg ..\..\JOCN-master\task a\images\nestle_crunch_bar.jpg ..\..\JOCN-master\task a\images\lance_van-o_cookies.jpg ..\..\JOCN-master\task a\images\quaker_chewy_dark choc chunk.jpg ..\..\JOCN-master\task a\images\nabisco_ritz bits_cookies.jpg ..\..\JOCN-master\task a\images\barnum's_animal_crackers.jpg ..\..\JOCN-master\task a\images\nature valley_oats and honey_crunchy.jpg ..\..\JOCN-master\task a\images\nestle_butterfinger_bar.jpg,12,1.46325738542,..\..\JOCN-master\task a\images\nestle_crunch_bar.jpg,1.51473227417,6,6,3.30304439939,0,2
2,1.25,6,..\..\JOCN-master\task a\images\lance_captain_wafers_with_honey_and_pb.JPG ..\..\JOCN-master\task a\images\quaker_chewy_chocolate chip.jpg ..\..\JOCN-master\task a\images\slim_jim.jpg ..\..\JOCN-master\task a\images\kars_mango pinapple_trail mix.jpg ..\..\JOCN-master\task a\images\nabisco_teddy graham_honey.jpg ..\..\JOCN-master\task a\images\keebler_chips delux_cookies_crackers.jpg,6,1.18726441293,..\..\JOCN-master\task a\images\slim_jim.jpg,2.00204724522,3,6,3.03705355272,0,1
2,0.5,3,..\..\JOCN-master\task a\images\nabisco_nutter butter_cookies and crackers.jpg ..\..\JOCN-master\task a\images\wheat_thins.jpg ..\..\JOCN-master\task a\images\skittles_wild berry_candy.jpg,3,2.05392803377,..\..\JOCN-master\task a\images\wheat_thins.jpg,1.96676039489,6,4,3.53354299159,0,1
7,0.5,12,..\..\JOCN-master\task a\images\kettle_original.jpg ..\..\JOCN-master\task a\images\grandmas_chocolate chip_cookies.jpg ..\..\JOCN-master\task a\images\nabisco_ritz bits_cookies.jpg ..\..\JOCN-master\task a\images\starburst_orignal_candy.jpg ..\..\JOCN-master\task a\images\jacklinks_beef_steak.jpg ..\..\JOCN-master\task a\images\doritos_nacho cheesier_chips.jpg ..\..\JOCN-master\task a\images\special_k_pastry_crisps_blueberry.jpg ..\..\JOCN-master\task a\images\doritos_cool ranch_chips.jpg ..\..\JOCN-master\task a\images\keebler_vanilla_sugar_wafers.jpg ..\..\JOCN-master\task a\images\nutrigrain_apple cinnamon_bar.jpg ..\..\JOCN-master\task a\images\welch's_mixed fruit_fruit snacks.jpg ..\..\JOCN-master\task a\images\nuture valley_crunchy_bar.jpg,12,5.6637218222e-06,..\..\JOCN-master\task a\images\kettle_original.jpg,1.13274145406e-05,n/a,n/a,,1,2
4,1.75,2,1.75 1.25 1.5,1.75,5.6637218222e-06,$1.25,4.15337854065e-06,n/a,n/a,,1,1
2,1.5,3,1.75 1.5,1.5,1.55348154402,$1.75,1.19921108184,5,5,3.37556415348,0,1
2,1.25,2,1.5 1.75 0.75 1.25,1.25,1.38242442618,$1.75,0.633168166736,5,5,2.99031881822,0,1
4,0.5,3,..\..\JOCN-master\task a\images\baked_ruffles_cheddar &sour.JPG ..\..\JOCN-master\task a\images\nabisco_chips ahhoy_mini.jpg ..\..\JOCN-master\task a\images\3 musketeers_candy bar.jpg,3,6.04128581472e-06,..\..\JOCN-master\task a\images\nabisco_chips ahhoy_mini.jpg,9.81710036285e-06,n/a,n/a,,1,1
5,1.0,3,1.0 1.75 0.5,1.0,2.61922900184,$1.75,1.14907283051,6,2,2.75702310455,0,2
6,0.5,12,..\..\JOCN-master\task a\images\hersey_milk_chocolate.jpg ..\..\JOCN-master\task a\images\kars_mango pinapple_trail mix.jpg ..\..\JOCN-master\task a\images\austin_peanut_butter.jpg ..\..\JOCN-master\task a\images\nature_valley_chewy.jpg ..\..\JOCN-master\task a\images\kellogg's_rice krispies_orignal.jpg ..\..\JOCN-master\task a\images\lays_kc masterpiece_barbecue chips.jpg ..\..\JOCN-master\task a\images\kind_almond_butter.jpg ..\..\JOCN-master\task a\images\garden_veggie straws_zesty ranch.jpg ..\..\JOCN-master\task a\images\jacklinks_beef_stick.jpg ..\..\JOCN-master\task a\images\starburst_orignal_candy.jpg ..\..\JOCN-master\task a\images\keebler_chips_deluxe.jpg ..\..\JOCN-master\task a\images\milkyway_orginal_candy.jpg,12,1.15715306802,..\..\JOCN-master\task a\images\lays_kc masterpiece_barbecue chips.jpg,0.843251321436,6,3,2.69436614879,0,2
5,1.25,12,..\..\JOCN-master\task a\images\snickers_milk chocolate_candy bar.jpg ..\..\JOCN-master\task a\images\keebler_chips_deluxe.jpg ..\..\JOCN-master\task a\images\skittles_sour_candy.jpg ..\..\JOCN-master\task a\images\nutrigrain_strawberry_bar.jpg ..\..\JOCN-master\task a\images\kind_almond_butter.jpg ..\..\JOCN-master\task a\images\hersheys_milk choc_almond.jpg ..\..\JOCN-master\task a\images\nestle_babyruth_bar.jpg ..\..\JOCN-master\task a\images\belvita_blueberry.JPG ..\..\JOCN-master\task a\images\nestle_crunch_bar.jpg ..\..\JOCN-master\task a\images\special_k_cracker_chips.jpg ..\..\JOCN-master\task a\images\baked_lays_classic.jpg ..\..\JOCN-master\task a\images\baked_lays_barbeque.jpg,12,1.98834557892,..\..\JOCN-master\task a\images\skittles_sour_candy.jpg,2.78043880221,6,2,3.24758225321,0,2
1,0.5,6,..\..\JOCN-master\task a\images\krave_jerky_sweet_chipotle.jpg ..\..\JOCN-master\task a\images\austin_peanut_butter.jpg ..\..\JOCN-master\task a\images\planters_salted_peanuts.jpg ..\..\JOCN-master\task a\images\planters_honey roasted_peanuts.jpg ..\..\JOCN-master\task a\images\kind bar_peanut butter_bar.jpg ..\..\JOCN-master\task a\images\milkyway_orginal_candy.jpg,6,1.26150065113,..\..\JOCN-master\task a\images\milkyway_orginal_candy.jpg,1.99104415171,6,1,2.8649441161,0,1
1,0.5,2,0.5 1.0 1.75 1.25 0.75 1.5,0.5,1.22031522743,$1.75,1.16593900477,4,1,3.55780031771,0,1
6,1.75,6,0.5 1.0 1.75,1.75,1.42611170287,$1.75,1.33291937847,6,5,3.00482662037,0,2
3,1.0,3,1.25 0.5 1.75 1.0,1.0,8.68435017765e-06,$1.0,4.15340764448e-06,n/a,n/a,,1,1
6,1.25,12,1.25 1.5 0.75,1.25,2.16404732299,$1.25,2.24819544508,5,4,3.73857297719,0,2
8,1.5,2,..\..\JOCN-master\task a\images\nature_valley_chewy.jpg ..\..\JOCN-master\task a\images\kars_mango pinapple_trail mix.jpg,2,6.04128581472e-06,..\..\JOCN-master\task a\images\kars_mango pinapple_trail mix.jpg,1.39705080073e-05,n/a,n/a,,1,2
6,1.0,2,0.5 1.0,1.0,2.29845603273,$1.0,2.18184838831,4,5,4.26689666396,0,2
5,1.75,3,..\..\JOCN-master\task a\images\planters_honey roasted_peanuts.jpg ..\..\JOCN-master\task a\images\nuture valley_crunchy_bar.jpg ..\..\JOCN-master\task a\images\sun chips_french onion_chips.jpg,3,1.5317902597,..\..\JOCN-master\task a\images\planters_honey roasted_peanuts.jpg,1.41842943593,4,4,3.57952596192,0,2
1,1.5,2,0.75 1.5,1.5,1.59873049651,$1.5,2.06497870255,5,3,3.01287174283,0,1
8,1.25,3,1.25 0.5 0.75 1.5 1.0 1.75,1.25,6.79647200741e-06,$0.5,4.15337854065e-06,n/a,n/a,,1,2
6,1.25,3,1.0 0.5 1.5 1.25,1.25,1.43975257859,$1.25,1.83200506563,5,5,n/a,1,2
4,0.5,12,..\..\JOCN-master\task a\images\baked_lays_barbeque.jpg ..\..\JOCN-master\task a\images\kind_dark_chocolate.jpg ..\..\JOCN-master\task a\images\haribo_gold_bears.jpg ..\..\JOCN-master\task a\images\popchips_sea_salt.jpg ..\..\JOCN-master\task a\images\jacklinks_beef_steak.jpg ..\..\JOCN-master\task a\images\pringles_sour cream and onion_potato crisps.jpg ..\..\JOCN-master\task a\images\pepperidge farms-goldish-cheddar.jpg ..\..\JOCN-master\task a\images\garden_veggie straws_cheddar.jpg ..\..\JOCN-master\task a\images\lance_captain_wafers_with_honey_and_pb.JPG ..\..\JOCN-master\task a\images\nabisco_nutter butter_cookies and crackers.jpg ..\..\JOCN-master\task a\images\austin_peanut_butter.jpg ..\..\JOCN-master\task a\images\kettle_bbq.jpg,12,6.04128581472e-06,..\..\JOCN-master\task a\images\nabisco_nutter butter_cookies and crackers.jpg,1.43481011037e-05,n/a,n/a,,1,1
1,0.75,12,..\..\JOCN-master\task a\images\twix_milk chocolate_cookie bars.jpg ..\..\JOCN-master\task a\images\kars_mango pinapple_trail mix.jpg ..\..\JOCN-master\task a\images\special_k_pastry_crisps_strawberry.jpg ..\..\JOCN-master\task a\images\krave_jerky_chili_lime.jpg ..\..\JOCN-master\task a\images\special_k_cracker_chips.jpg ..\..\JOCN-master\task a\images\garden_veggie straws_cheddar.jpg ..\..\JOCN-master\task a\images\fiber one_chocolate fudge_ brownie.jpg ..\..\JOCN-master\task a\images\garden_veggie straws_sea salt.jpg ..\..\JOCN-master\task a\images\nestle_crunch_bar.jpg ..\..\JOCN-master\task a\images\pringles_cheddar_potato crisps.jpg ..\..\JOCN-master\task a\images\wheat_thins.jpg ..\..\JOCN-master\task a\images\this_popcorn_is_awesome_aged_white_cheddar.jpg,12,1.35460273363,..\..\JOCN-master\task a\images\fiber one_chocolate fudge_ brownie.jpg,2.12341316784,5,4,4.46817915625,0,1
2,1.5,2,1.5 0.75,1.5,1.46466991663,$1.5,2.4644074977,5,4,3.28955417857,0,1
2,1.5,6,1.5 0.5 1.25,1.5,2.08932438263,$1.25,1.68217065386,4,4,3.67863687148,0,1
4,1.75,2,1.25 1.75,1.75,6.04131491855e-06,$1.25,4.15340764448e-06,n/a,n/a,,1,1
2,1.5,6,1.75 1.0 1.5,1.5,1.84927147598,$1.75,1.14950780402,6,4,3.5543050486,0,1
4,1.75,6,0.5 0.75 1.25 1.75 1.0 1.5,1.75,6.04131491855e-06,$1.0,4.53100074083e-06,n/a,n/a,,1,1
5,1.5,6,..\..\JOCN-master\task a\images\slim_jim.jpg ..\..\JOCN-master\task a\images\nestle_butterfinger_bar.jpg ..\..\JOCN-master\task a\images\poptarts_strawberry_frosted.jpg ..\..\JOCN-master\task a\images\baked_lays_barbeque.jpg ..\..\JOCN-master\task a\images\austin_cheddar cheese_cheese cracker.jpg ..\..\JOCN-master\task a\images\kars_mango pinapple_trail mix.jpg,6,1.54802662853,..\..\JOCN-master\task a\images\baked_lays_barbeque.jpg,1.25141998846,6,6,3.58225851698,0,2
1,1.75,6,..\..\JOCN-master\task a\images\garden_veggie straws_sea salt.jpg ..\..\JOCN-master\task a\images\kars_all_energy.jpg ..\..\JOCN-master\task a\images\kitkat_crisp wafers_milk choc.jpg ..\..\JOCN-master\task a\images\baked_lays_sour cream and onion.jpg ..\..\JOCN-master\task a\images\belvita_golden_oats.JPG ..\..\JOCN-master\task a\images\cheez-it_white_cheddar.JPG,6,2.11973288396,..\..\JOCN-master\task a\images\baked_lays_sour cream and onion.jpg,0.915817518049,6,6,2.6639149808,0,1
1,0.5,3,..\..\JOCN-master\task a\images\m&m's_milk_chocholate.jpg ..\..\JOCN-master\task a\images\fiber one_lemon_ bar.jpg ..\..\JOCN-master\task a\images\kind bar_peanut butter_bar.jpg,3,1.70644648143,..\..\JOCN-master\task a\images\m&m's_milk_chocholate.jpg,1.27234969154,6,5,3.01843577932,0,1
2,1.0,2,0.75 0.5 1.0 1.75,1.0,1.58224756716,$1.75,0.982695831539,7,6,2.70822526643,0,1
4,1.0,2,..\..\JOCN-master\task a\images\ct_crunch_cereal_bar.jpg ..\..\JOCN-master\task a\images\krave_jerky_black_cherry_bbq.jpg,2,6.41887891106e-06,..\..\JOCN-master\task a\images\ct_crunch_cereal_bar.jpg,1.17050367408e-05,n/a,n/a,,1,1
4,0.75,2,..\..\JOCN-master\task a\images\fiber one_lemon_ bar.jpg ..\..\JOCN-master\task a\images\quaker_chewy_dark choc chunk.jpg,2,5.28612872586e-06,..\..\JOCN-master\task a\images\quaker_chewy_dark choc chunk.jpg,9.81710036285e-06,n/a,n/a,,1,1
2,1.25,2,0.75 1.0 1.5 1.25,1.25,1.89113239243,$1.25,1.63143129324,6,5,3.42407238684,0,1
1,0.75,2,..\..\JOCN-master\task a\images\special_k_pastry_crisps_strawberry.jpg ..\..\JOCN-master\task a\images\nutrigrain_blueberry_bar.jpg,2,1.91853081647,..\..\JOCN-master\task a\images\nutrigrain_blueberry_bar.jpg,1.57863864611,6,5,3.12526029506,0,1
5,0.75,2,..\..\JOCN-master\task a\images\reeses_peanut butter cups_milk choc.jpg ..\..\JOCN-master\task a\images\keebler_chips delux_cookies_crackers.jpg,2,1.64781529634,..\..\JOCN-master\task a\images\keebler_chips delux_cookies_crackers.jpg,1.61355773234,6,3,3.09308207067,0,2
4,0.75,2,1.0 1.75 0.75,0.75,6.79644290358e-06,$0.75,4.530971637e-06,n/a,n/a,,1,1
2,0.5,2,0.5 1.5 1.25 1.0,0.5,2.3249331587,$1.25,1.21618599951,6,4,2.89888753253,0,1
5,0.5,3,..\..\JOCN-master\task a\images\austin_peanut butter_cheese cracker.jpg ..\..\JOCN-master\task a\images\cheez itz_original.jpg ..\..\JOCN-master\task a\images\baked_ruffles_cheddar &sour.JPG,3,1.54140196653,..\..\JOCN-master\task a\images\austin_peanut butter_cheese cracker.jpg,1.23250354832,6,4,3.50040873163,0,2
3,1.0,2,..\..\JOCN-master\task a\images\fritos_original_corn chips.jpg ..\..\JOCN-master\task a\images\garden_veggie straws_sea salt.jpg,2,6.41887891106e-06,..\..\JOCN-master\task a\images\garden_veggie straws_sea salt.jpg,1.28377578221e-05,n/a,n/a,,1,1
8,1.0,6,..\..\JOCN-master\task a\images\reeses_peanut butter cups_milk choc.jpg ..\..\JOCN-master\task a\images\austin_peanut_butter.jpg ..\..\JOCN-master\task a\images\krave_jerky_chili_lime.jpg ..\..\JOCN-master\task a\images\special_k_pastry_crisps_strawberry.jpg ..\..\JOCN-master\task a\images\ct_crunch_cereal_bar.jpg ..\..\JOCN-master\task a\images\boulder_kettle_sea_salt.jpg,6,5.6637218222e-06,..\..\JOCN-master\task a\images\special_k_pastry_crisps_strawberry.jpg,1.13274436444e-05,n/a,n/a,,1,2
2,1.5,6,..\..\JOCN-master\task a\images\nutrigrain_strawberry_bar.jpg ..\..\JOCN-master\task a\images\nabisco_ritz bits_cookies.jpg ..\..\JOCN-master\task a\images\hersheys_milk choc_almond.jpg ..\..\JOCN-master\task a\images\nuture valley_crunchy_bar.jpg ..\..\JOCN-master\task a\images\jacklinks_beef_jerky_original.jpg ..\..\JOCN-master\task a\images\special_k_pastry_crisps_blueberry.jpg,6,0.899988559308,..\..\JOCN-master\task a\images\special_k_pastry_crisps_blueberry.jpg,1.97035874365,5,2,2.63510402551,0,1
8,1.75,12,..\..\JOCN-master\task a\images\poptarts_strawberry_frosted.jpg ..\..\JOCN-master\task a\images\lance_toasty_with_pb.jpg ..\..\JOCN-master\task a\images\nutrigrain_strawberry_bar.jpg ..\..\JOCN-master\task a\images\kind_dark_chocolate.jpg ..\..\JOCN-master\task a\images\jacklinks_beef_jerky_original.jpg ..\..\JOCN-master\task a\images\kettle_original.jpg ..\..\JOCN-master\task a\images\milkyway_orginal_candy.jpg ..\..\JOCN-master\task a\images\planters_honey roasted_peanuts.jpg ..\..\JOCN-master\task a\images\austin_peanut butter_cheese cracker.jpg ..\..\JOCN-master\task a\images\skittles_original_candy.jpg ..\..\JOCN-master\task a\images\kitkat_crisp wafers_milk choc.jpg ..\..\JOCN-master\task a\images\cheetos_crunchy_chips.jpg,12,6.04128581472e-06,..\..\JOCN-master\task a\images\jacklinks_beef_jerky_original.jpg,9.81712946668e-06,n/a,n/a,,1,2
3,0.5,3,1.0 0.5 1.75 1.5 0.75 1.25,0.5,9.06194327399e-06,$1.25,6.79644290358e-06,n/a,n/a,,1,1
2,1.25,6,0.5 1.25 1.75 0.75,1.25,1.81436824813,$1.75,1.0993733285,6,5,3.2470627015,0,1
2,1.5,12,1.0 1.5 1.75,1.5,1.84446902078,$1.75,1.16643552406,7,5,3.38304819033,0,1
6,1.0,2,1.75 1.5 0.75 1.0,1.0,2.32237957709,$1.75,1.18222974532,6,3,3.07865960186,0,2
3,1.75,2,..\..\JOCN-master\task a\images\baked_lays_classic.jpg ..\..\JOCN-master\task a\images\sun chips_french onion_chips.jpg,2,6.41887891106e-06,..\..\JOCN-master\task a\images\baked_lays_classic.jpg,9.43953637034e-06,n/a,n/a,,1,1
6,1.75,3,1.25 1.75,1.75,2.13014506293,$1.75,1.43281527935,5,5,3.74358876576,0,2
3,1.0,2,1.0 1.75,1.0,6.04128581472e-06,$1.0,4.15337854065e-06,n/a,n/a,,1,1
5,1.75,2,..\..\JOCN-master\task a\images\nabisco_oreo_mini.jpg ..\..\JOCN-master\task a\images\sun chips_garden salsa_chips.jpg,2,1.271328712,..\..\JOCN-master\task a\images\sun chips_garden salsa_chips.jpg,2.21876299116,6,1,3.01240014395,0,2
1,1.25,3,..\..\JOCN-master\task a\images\twix_milk chocolate_cookie bars.jpg ..\..\JOCN-master\task a\images\pringles_sour cream and onion_potato crisps.jpg ..\..\JOCN-master\task a\images\krave_jerky_sweet_chipotle.jpg,3,1.91184725179,..\..\JOCN-master\task a\images\pringles_sour cream and onion_potato crisps.jpg,1.46796544528,6,5,3.2186878525,0,1
8,1.75,12,..\..\JOCN-master\task a\images\hersheys_milk choc_almond.jpg ..\..\JOCN-master\task a\images\this_popcorn_is_awesome_popcorn.jpg ..\..\JOCN-master\task a\images\chex mix_original_traditional.jpg ..\..\JOCN-master\task a\images\planters_honey roasted_peanuts.jpg ..\..\JOCN-master\task a\images\kellogg's_rice krispies_orignal.jpg ..\..\JOCN-master\task a\images\pringles_sour cream and onion_potato crisps.jpg ..\..\JOCN-master\task a\images\keebler_fudge_stripes.jpg ..\..\JOCN-master\task a\images\poptarts_brown_sugar.jpg ..\..\JOCN-master\task a\images\sun chips_garden salsa_chips.jpg ..\..\JOCN-master\task a\images\nestle_crunch_bar.jpg ..\..\JOCN-master\task a\images\poptarts_strawberry_frosted.jpg ..\..\JOCN-master\task a\images\m&m's_peanut_butter.jpg,12,6.04131491855e-06,..\..\JOCN-master\task a\images\poptarts_strawberry_frosted.jpg,9.81710036285e-06,n/a,n/a,,1,2
2,1.75,2,1.75 0.5 1.25 1.0,1.75,1.46690406455,$1.75,1.13293312243,6,5,3.11811457097,0,1
3,1.5,3,..\..\JOCN-master\task a\images\mini_cheese_nips.jpg ..\..\JOCN-master\task a\images\nabisco_oreo_mini.jpg ..\..\JOCN-master\task a\images\hersheys_milk choc_almond.jpg,3,6.04131491855e-06,..\..\JOCN-master\task a\images\nabisco_oreo_mini.jpg,1.17050367408e-05,n/a,n/a,,1,1
7,1.0,6,..\..\JOCN-master\task a\images\nestle_butterfinger_bar.jpg ..\..\JOCN-master\task a\images\lays_kc masterpiece_barbecue chips.jpg ..\..\JOCN-master\task a\images\belvita_blueberry.JPG ..\..\JOCN-master\task a\images\baked_ruffles_cheddar &sour.JPG ..\..\JOCN-master\task a\images\jacklinks_beef_steak.jpg ..\..\JOCN-master\task a\images\kind bar_peanut butter_bar.jpg,6,5.28612872586e-06,..\..\JOCN-master\task a\images\baked_ruffles_cheddar &sour.JPG,9.81710036285e-06,n/a,n/a,,1,2
6,1.75,6,1.25 0.75 1.5 1.75,1.75,1.60319614928,$1.75,1.28216113881,6,5,2.57709207357,0,2
6,1.0,3,1.5 1.75 1.25 1.0 0.5 0.75,1.0,1.8809365675,$1.75,0.98293370771,5,5,2.39177673473,0,2
1,0.75,12,..\..\JOCN-master\task a\images\cheez-it_white_cheddar.JPG ..\..\JOCN-master\task a\images\slim_jim.jpg ..\..\JOCN-master\task a\images\welch's_mixed fruit_fruit snacks.jpg ..\..\JOCN-master\task a\images\nature_valley_sweet_and_salty.jpg ..\..\JOCN-master\task a\images\planters_honey roasted_peanuts.jpg ..\..\JOCN-master\task a\images\krave_jerky_sweet_chipotle.jpg ..\..\JOCN-master\task a\images\popchips_sea_salt.jpg ..\..\JOCN-master\task a\images\special_k_pastry_crisps_strawberry.jpg ..\..\JOCN-master\task a\images\kind bar_peanut butter_bar.jpg ..\..\JOCN-master\task a\images\lays_kc masterpiece_barbecue chips.jpg ..\..\JOCN-master\task a\images\hersey_milk_chocolate.jpg ..\..\JOCN-master\task a\images\nabisco_oreo_mini.jpg,12,0.966094341682,..\..\JOCN-master\task a\images\lays_kc masterpiece_barbecue chips.jpg,1.94016735154,6,6,2.56310759895,0,1
1,0.5,12,..\..\JOCN-master\task a\images\baked_lays_barbeque.jpg ..\..\JOCN-master\task a\images\pirates booty_aged white cheddar_ corn puffs.jpg ..\..\JOCN-master\task a\images\welch's_mixed fruit_fruit snacks.jpg ..\..\JOCN-master\task a\images\kettle_salt_vinegar.jpg ..\..\JOCN-master\task a\images\jacklinks_beef_steak.jpg ..\..\JOCN-master\task a\images\krave_jerky_sweet_chipotle.jpg ..\..\JOCN-master\task a\images\nutrigrain_blueberry_bar.jpg ..\..\JOCN-master\task a\images\pringles_cheddar_potato crisps.jpg ..\..\JOCN-master\task a\images\baked_lays_sour cream and onion.jpg ..\..\JOCN-master\task a\images\garden_veggie straws_sea salt.jpg ..\..\JOCN-master\task a\images\popchips_sea_salt.jpg ..\..\JOCN-master\task a\images\oreo_thin_crisps.jpg,12,1.21570911445,..\..\JOCN-master\task a\images\kettle_salt_vinegar.jpg,1.34996188318,6,6,2.0408059546,0,1
4,1.5,2,..\..\JOCN-master\task a\images\pringles_cheddar_potato crisps.jpg ..\..\JOCN-master\task a\images\grandmas_chocolate chip_cookies.jpg,2,6.41887891106e-06,..\..\JOCN-master\task a\images\pringles_cheddar_potato crisps.jpg,1.62360083777e-05,n/a,n/a,,1,1
2,1.0,2,1.0 1.25 0.75,1.0,1.30871793439,$1.25,2.23146482246,6,4,2.21025872996,0,1
6,1.25,2,0.75 1.5 1.25 1.0,1.25,1.58924905522,$1.5,2.06525131615,6,2,3.30178101271,0,2
1,0.5,3,..\..\JOCN-master\task a\images\m&m's_milk_chocholate.jpg ..\..\JOCN-master\task a\images\jacklinks_beef_stick.jpg ..\..\JOCN-master\task a\images\special_k_pastry_crisps_strawberry.jpg,3,2.03597178261,..\..\JOCN-master\task a\images\m&m's_milk_chocholate.jpg,1.9710146022,6,5,3.5038828562,0,1
1,1.75,2,..\..\JOCN-master\task a\images\kettle_original.jpg ..\..\JOCN-master\task a\images\m&m's_milk_chocholate.jpg,2,2.15535351605,..\..\JOCN-master\task a\images\kettle_original.jpg,0.994431055005,6,6,2.76713133068,0,1
4,0.75,2,1.25 0.5 1.0 1.5 1.75 0.75,0.75,6.41887891106e-06,$1.5,4.15337854065e-06,n/a,n/a,,1,1
6,1.0,2,1.5 1.0 1.75,1.0,2.54301650371,$1.75,1.48232221496,6,5,2.06808619574,0,2
2,0.5,3,0.75 0.5,0.5,1.58848747393,$0.75,2.69771793703,1,1,2.36923513754,0,1
2,0.5,3,..\..\JOCN-master\task a\images\planters_honey roasted_peanuts.jpg ..\..\JOCN-master\task a\images\doritos_cool ranch_chips.jpg ..\..\JOCN-master\task a\images\reeses_peanut butter cups_milk choc.jpg,3,1.76226732976,..\..\JOCN-master\task a\images\planters_honey roasted_peanuts.jpg,2.60854760749,6,4,1.79426582548,0,1
3,0.75,12,1.5 0.75,0.75,6.41887891106e-06,$1.5,4.530971637e-06,n/a,n/a,,1,1
5,1.75,3,..\..\JOCN-master\task a\images\nutrigrain_strawberry_bar.jpg ..\..\JOCN-master\task a\images\nestle_crunch_bar.jpg ..\..\JOCN-master\task a\images\skittles_original_candy.jpg,3,1.272223957,..\..\JOCN-master\task a\images\nestle_crunch_bar.jpg,1.11390000969,6,4,2.60396339427,0,2
3,1.0,3,..\..\JOCN-master\task a\images\mini_cheese_nips.jpg ..\..\JOCN-master\task a\images\jacklinks_beef_jerky_original.jpg ..\..\JOCN-master\task a\images\starburst_verry berry_candy.jpg,3,6.04128581472e-06,..\..\JOCN-master\task a\images\jacklinks_beef_jerky_original.jpg,1.09498505481e-05,n/a,n/a,,1,1
5,1.75,12,..\..\JOCN-master\task a\images\swedish fish_original_candy.jpg ..\..\JOCN-master\task a\images\3 musketeers_candy bar.jpg ..\..\JOCN-master\task a\images\basils_duplex_sandwich_cremes.jpg ..\..\JOCN-master\task a\images\kind bar_peanut butter_bar.jpg ..\..\JOCN-master\task a\images\ritz_toasted_chips.jpg ..\..\JOCN-master\task a\images\haribo_gold_bears.jpg ..\..\JOCN-master\task a\images\nature valley_oats and honey_crunchy.jpg ..\..\JOCN-master\task a\images\jacklinks_beef_steak.jpg ..\..\JOCN-master\task a\images\fig_newtons.jpg ..\..\JOCN-master\task a\images\jacklinks_beef_stick.jpg ..\..\JOCN-master\task a\images\planters_honey roasted_peanuts.jpg ..\..\JOCN-master\task a\images\kellogg's_rice krispies_orignal.jpg,12,1.07808416814,..\..\JOCN-master\task a\images\kellogg's_rice krispies_orignal.jpg,2.40019943839,6,5,3.1363528753,0,2
1,1.5,6,..\..\JOCN-master\task a\images\austin_peanut_butter.jpg ..\..\JOCN-master\task a\images\oreo_thin_crisps.jpg ..\..\JOCN-master\task a\images\chex mix_original_traditional.jpg ..\..\JOCN-master\task a\images\popchips_sea_salt.jpg ..\..\JOCN-master\task a\images\kettle_original.jpg ..\..\JOCN-master\task a\images\skittles_original_candy.jpg,6,1.62772873207,..\..\JOCN-master\task a\images\kettle_original.jpg,1.81119127999,6,6,3.04782594412,0,1
6,1.25,2,0.5 1.75 1.0 1.25,1.25,1.4814677487,$1.75,1.01608344846,6,6,2.48071296391,0,2
2,0.5,12,..\..\JOCN-master\task a\images\m&m's_peanut_butter.jpg ..\..\JOCN-master\task a\images\special_k_pastry_crisps_blueberry.jpg ..\..\JOCN-master\task a\images\planters_salted_peanuts.jpg ..\..\JOCN-master\task a\images\quaker_chewy_dark choc chunk.jpg ..\..\JOCN-master\task a\images\sunchips_harvest cheddar_chips.jpg ..\..\JOCN-master\task a\images\kettle_bbq.jpg ..\..\JOCN-master\task a\images\cheez itz_original.jpg ..\..\JOCN-master\task a\images\nutrigrain_strawberry_bar.jpg ..\..\JOCN-master\task a\images\nestle_butterfinger_cups.jpg ..\..\JOCN-master\task a\images\nestle_crunch_bar.jpg ..\..\JOCN-master\task a\images\welch's_mixed fruit_fruit snacks.jpg ..\..\JOCN-master\task a\images\this_popcorn_is_awesome_aged_white_cheddar.jpg,12,1.97324799496,..\..\JOCN-master\task a\images\kettle_bbq.jpg,2.01961647568,6,6,4.21375513179,0,1
1,1.0,3,..\..\JOCN-master\task a\images\twix_milk chocolate_cookie bars.jpg ..\..\JOCN-master\task a\images\popchips_sea_salt.jpg ..\..\JOCN-master\task a\images\krave_jerky_chili_lime.jpg,3,1.22552773578,..\..\JOCN-master\task a\images\twix_milk chocolate_cookie bars.jpg,1.99670333863,6,5,3.60795065164,0,1
6,1.75,2,1.25 1.75 0.75 1.0,1.75,1.49555832366,$1.75,1.66532449139,5,5,2.99995657816,0,2
6,1.0,6,1.0 0.5,1.0,2.2300749461,$1.0,2.01529883477,6,5,3.24177014592,0,2
6,0.5,2,..\..\JOCN-master\task a\images\slim_jim.jpg ..\..\JOCN-master\task a\images\m&m's_peanut.jpg,2,1.53929506344,..\..\JOCN-master\task a\images\m&m's_peanut.jpg,1.27839854226,5,3,2.4313170372,0,2
3,1.75,6,1.75 1.5 1.25 0.75,1.75,6.41887891106e-06,$1.75,6.41887891106e-06,n/a,n/a,,1,1
1,1.25,3,..\..\JOCN-master\task a\images\chex mix_original_traditional.jpg ..\..\JOCN-master\task a\images\hersey_milk_chocolate.jpg ..\..\JOCN-master\task a\images\cheez itz_original.jpg,3,1.95102620905,..\..\JOCN-master\task a\images\hersey_milk_chocolate.jpg,1.87242815291,6,4,2.69198965275,0,1
1,0.75,3,..\..\JOCN-master\task a\images\nature_valley_sweet_and_salty.jpg ..\..\JOCN-master\task a\images\nestle_crunch_bar.jpg ..\..\JOCN-master\task a\images\kettle_jalepeno.jpg,3,1.67083340097,..\..\JOCN-master\task a\images\kettle_jalepeno.jpg,1.76543032739,6,7,3.25953496346,0,1
1,1.0,3,..\..\JOCN-master\task a\images\garden_veggie straws_sea salt.jpg ..\..\JOCN-master\task a\images\krave_jerky_original.jpg ..\..\JOCN-master\task a\images\special_k_pastry_crisps_blueberry.jpg,3,1.42431328364,..\..\JOCN-master\task a\images\garden_veggie straws_sea salt.jpg,1.09958401881,6,6,2.34546451361,0,1
5,1.0,2,..\..\JOCN-master\task a\images\welch's_berry.jpg ..\..\JOCN-master\task a\images\nestle_crunch_bar.jpg,2,1.11729824042,..\..\JOCN-master\task a\images\nestle_crunch_bar.jpg,1.17321650469,5,6,2.32778578458,0,2
6,1.0,2,..\..\JOCN-master\task a\images\nestle_butterfinger_bar.jpg ..\..\JOCN-master\task a\images\nabisco_ritz bits_cookies.jpg,2,1.67828572096,..\..\JOCN-master\task a\images\nestle_butterfinger_bar.jpg,0.946253582777,6,4,2.11795674203,0,2
1,1.5,3,..\..\JOCN-master\task a\images\pringles_cheddar_potato crisps.jpg ..\..\JOCN-master\task a\images\mini_fudge_stripes.jpg ..\..\JOCN-master\task a\images\krave_jerky_sweet_chipotle.jpg,3,2.78897213715,..\..\JOCN-master\task a\images\pringles_cheddar_potato crisps.jpg,3.06855439642,6,5,3.36441757914,0,1
6,1.5,6,1.5 0.75 1.75,1.5,2.60269283355,$1.75,1.84888898622,4,2,n/a,1,2
8,0.5,3,1.0 1.5 1.25 1.75 0.75 0.5,0.5,6.79647200741e-06,$1.5,4.15340764448e-06,n/a,n/a,,1,2
1,1.75,2,0.5 1.5 0.75 1.0 1.25 1.75,1.75,1.6274833043,$1.75,2.54792505919,6,5,2.17200409147,0,1
6,0.5,6,..\..\JOCN-master\task a\images\krave_jerky_black_cherry_bbq.jpg ..\..\JOCN-master\task a\images\baked_lays_barbeque.jpg ..\..\JOCN-master\task a\images\doritos_nacho cheesier_chips.jpg ..\..\JOCN-master\task a\images\starburst_verry berry_candy.jpg ..\..\JOCN-master\task a\images\jacklinks_beef_steak.jpg ..\..\JOCN-master\task a\images\fiber one_oats and choc_chewy bar.jpg,6,2.09861174723,..\..\JOCN-master\task a\images\baked_lays_barbeque.jpg,1.52674388705,6,6,2.85773193775,0,2
7,1.5,2,..\..\JOCN-master\task a\images\starburst_verry berry_candy.jpg ..\..\JOCN-master\task a\images\lays_kc masterpiece_barbecue chips.jpg,2,6.79644290358e-06,..\..\JOCN-master\task a\images\lays_kc masterpiece_barbecue chips.jpg,1.3592914911e-05,n/a,n/a,,1,2
5,0.5,12,..\..\JOCN-master\task a\images\welch's_tropical_fruits.jpg ..\..\JOCN-master\task a\images\garden_veggie straws_cheddar.jpg ..\..\JOCN-master\task a\images\lance_van-o_cookies.jpg ..\..\JOCN-master\task a\images\kars_mango pinapple_trail mix.jpg ..\..\JOCN-master\task a\images\starburst_verry berry_candy.jpg ..\..\JOCN-master\task a\images\austin_peanut butter_cheese cracker.jpg ..\..\JOCN-master\task a\images\milkyway_orginal_candy.jpg ..\..\JOCN-master\task a\images\snickers_milk chocolate_candy bar.jpg ..\..\JOCN-master\task a\images\starburst_orignal_candy.jpg ..\..\JOCN-master\task a\images\nabisco_nutter butter_cookies and crackers.jpg ..\..\JOCN-master\task a\images\fiber one_oats and choc_chewy bar.jpg ..\..\JOCN-master\task a\images\nestle_babyruth_bar.jpg,12,1.24521632947,..\..\JOCN-master\task a\images\garden_veggie straws_cheddar.jpg,1.41466381872,6,6,3.05084885916,0,2
4,1.75,6,1.75 1.0 1.25,1.75,7.17403599992e-06,$1.75,4.530971637e-06,n/a,n/a,,1,1
6,0.75,3,..\..\JOCN-master\task a\images\special_k_pastry_crisps_strawberry.jpg ..\..\JOCN-master\task a\images\oreo_thin_crisps.jpg ..\..\JOCN-master\task a\images\keebler_fudge_stripes.jpg,3,1.79697119471,..\..\JOCN-master\task a\images\oreo_thin_crisps.jpg,2.03426171737,6,3,2.71976830106,0,2
6,1.75,3,0.5 1.75 1.25,1.75,1.9493750465,$1.75,0.882475588412,6,6,2.77734037093,0,2
5,0.5,2,..\..\JOCN-master\task a\images\teddy_grahams_chocolate.jpg ..\..\JOCN-master\task a\images\welch's_white_grape_raspberry.jpg,2,1.24431693106,..\..\JOCN-master\task a\images\teddy_grahams_chocolate.jpg,1.04755068742,6,1,2.26490681109,0,2
2,1.5,12,1.5 1.0,1.5,2.0289612326,$1.5,1.46565842419,7,4,3.403129846,0,1
1,1.0,3,..\..\JOCN-master\task a\images\cheez-it_white_cheddar.JPG ..\..\JOCN-master\task a\images\krave_jerky_original.jpg ..\..\JOCN-master\task a\images\m&m's_milk_chocholate.jpg,3,1.01156871015,..\..\JOCN-master\task a\images\m&m's_milk_chocholate.jpg,1.29356295808,6,5,2.41443236143,0,1
2,0.75,12,..\..\JOCN-master\task a\images\special_k_pastry_crisps_strawberry.jpg ..\..\JOCN-master\task a\images\garden_veggie straws_sea salt.jpg ..\..\JOCN-master\task a\images\basils_duplex_sandwich_cremes.jpg ..\..\JOCN-master\task a\images\sun chips_garden salsa_chips.jpg ..\..\JOCN-master\task a\images\mini_fudge_stripes.jpg ..\..\JOCN-master\task a\images\fig_newtons.jpg ..\..\JOCN-master\task a\images\mini_cheese_nips.jpg ..\..\JOCN-master\task a\images\kind_almond_butter.jpg ..\..\JOCN-master\task a\images\nabisco_ritz bits_cookies.jpg ..\..\JOCN-master\task a\images\haribo_gold_bears.jpg ..\..\JOCN-master\task a\images\boulder_kettle_sea_salt.jpg ..\..\JOCN-master\task a\images\quaker_chewy_dark choc chunk.jpg,12,1.19013138692,..\..\JOCN-master\task a\images\garden_veggie straws_sea salt.jpg,1.29599495852,6,4,2.75358598298,0,1
6,1.25,6,1.75 1.5 1.25,1.25,1.28517876772,$1.75,0.982889530685,6,5,2.5277765716,0,2
8,0.5,12,..\..\JOCN-master\task a\images\m&m's_milk_chocholate.jpg ..\..\JOCN-master\task a\images\nabisco_ritz bits_cookies.jpg ..\..\JOCN-master\task a\images\sun chips_french onion_chips.jpg ..\..\JOCN-master\task a\images\grandmas_chocolate chip_cookies.jpg ..\..\JOCN-master\task a\images\keebler_chips_deluxe.jpg ..\..\JOCN-master\task a\images\lance_captain_wafers_with_honey_and_pb.JPG ..\..\JOCN-master\task a\images\boulder_kettle_sea_salt.jpg ..\..\JOCN-master\task a\images\planters_salted_peanuts.jpg ..\..\JOCN-master\task a\images\austin_peanut butter_cheese cracker.jpg ..\..\JOCN-master\task a\images\basils_duplex_sandwich_cremes.jpg ..\..\JOCN-master\task a\images\doritos_nacho cheesier_chips.jpg ..\..\JOCN-master\task a\images\belvita_golden_oats.JPG,12,6.04128581472e-06,..\..\JOCN-master\task a\images\belvita_golden_oats.JPG,1.13274436444e-05,n/a,n/a,,1,2
5,1.0,2,..\..\JOCN-master\task a\images\basils_duplex_sandwich_cremes.jpg ..\..\JOCN-master\task a\images\nature_valley_chewy.jpg,2,1.49929864294,..\..\JOCN-master\task a\images\nature_valley_chewy.jpg,1.18438648907,6,4,3.5891927956,0,2
3,1.0,2,..\..\JOCN-master\task a\images\kind bar_peanut butter_bar.jpg ..\..\JOCN-master\task a\images\nabisco_nutter butter_cookies and crackers.jpg,2,6.04131491855e-06,..\..\JOCN-master\task a\images\nabisco_nutter butter_cookies and crackers.jpg,1.28377578221e-05,n/a,n/a,,1,1
6,0.75,6,..\..\JOCN-master\task a\images\garden_veggie straws_zesty ranch.jpg ..\..\JOCN-master\task a\images\haribo_gold_bears.jpg ..\..\JOCN-master\task a\images\this_popcorn_is_awesome_popcorn.jpg ..\..\JOCN-master\task a\images\baked_lays_barbeque.jpg ..\..\JOCN-master\task a\images\reeses_peanut butter cups_milk choc.jpg ..\..\JOCN-master\task a\images\nabisco_chips ahhoy_mini.jpg,6,1.56993351172,..\..\JOCN-master\task a\images\garden_veggie straws_zesty ranch.jpg,0.888700391952,6,5,2.4793540492,0,2
5,0.5,3,..\..\JOCN-master\task a\images\fritos_original_corn chips.jpg ..\..\JOCN-master\task a\images\belvita_blueberry.JPG ..\..\JOCN-master\task a\images\skittles_wild berry_candy.jpg,3,0.944136862614,..\..\JOCN-master\task a\images\belvita_blueberry.JPG,0.764889631129,4,3,n/a,1,2
5,1.75,6,..\..\JOCN-master\task a\images\keebler_cheese_and_peanut_butter.jpg ..\..\JOCN-master\task a\images\fiber one_oats and choc_chewy bar.jpg ..\..\JOCN-master\task a\images\kettle_jalepeno.jpg ..\..\JOCN-master\task a\images\keebler_fudge_stripes.jpg ..\..\JOCN-master\task a\images\planters_honey roasted_peanuts.jpg ..\..\JOCN-master\task a\images\garden_veggie straws_cheddar.jpg,6,1.6927013933,..\..\JOCN-master\task a\images\kettle_jalepeno.jpg,1.08521856475,6,6,2.61854293683,0,2
