Trial Type, Money Option, Item Option, Trial Options, Choice 1, Choice 1 RT, Choice 2, Choice 2 RT, Decision Rating , Selected Option Rating, PostChoiceRT, Computer Response, Choosing For
4,1.5,6,1.0 0.75 0.5 1.25 1.5 1.75,1.5,7.92919308878e-06,$0.75,3.77581454813e-06,n/a,n/a,,1,1
8,1.75,2,1.75 1.25,1.75,6.04130036663e-06,$1.25,3.77579999622e-06,n/a,n/a,,1,2
1,1.5,3,..\..\JOCN-master\task a\images\barnum's_animal_crackers.jpg ..\..\JOCN-master\task a\images\grandma's_peanut butter_cookies.jpg ..\..\JOCN-master\task a\images\kellogg's_rice krispies_orignal.jpg,3,1.67265686416,..\..\JOCN-master\task a\images\kellogg's_rice krispies_orignal.jpg,2.09415776395,1,4,n/a,1,1
5,1.5,2,1.0 0.75 1.75 1.25 0.5 1.5,1.5,1.6869181004,$1.25,2.11552092215,2,2,n/a,1,2
5,1.0,2,..\..\JOCN-master\task a\images\nestle_butterfinger_bar.jpg ..\..\JOCN-master\task a\images\annie's_chocolate_chip_bunny_grahams.jpg,2,2.33170495213,..\..\JOCN-master\task a\images\nestle_butterfinger_bar.jpg,1.26782579014,6,7,3.3069949155,0,2
4,1.75,12,0.75 0.5 1.5 1.75,1.75,5.66370727029e-06,$0.75,3.39822145179e-06,n/a,n/a,,1,1
3,1.0,2,..\..\JOCN-master\task a\images\haribo_gold_bears.jpg ..\..\JOCN-master\task a\images\mini_cheese_nips.jpg,2,7.17403599992e-06,..\..\JOCN-master\task a\images\haribo_gold_bears.jpg,1.20825861814e-05,n/a,n/a,,1,1
2,0.5,2,1.0 1.5 1.25 1.75 0.75 0.5,0.5,1.60240753229,$1.75,0.88276637021,6,6,2.75083351017,0,1
6,0.5,12,..\..\JOCN-master\task a\images\sourpatchkids_original_candy.jpg ..\..\JOCN-master\task a\images\lance_van-o_cookies.jpg ..\..\JOCN-master\task a\images\pepperidge farms-goldish-cheddar.jpg ..\..\JOCN-master\task a\images\nabisco_mini_ritz.jpg ..\..\JOCN-master\task a\images\lance_toast_cheese_with_pb.JPG ..\..\JOCN-master\task a\images\basils_peanut_butter.jpg ..\..\JOCN-master\task a\images\sun chips_french onion_chips.jpg ..\..\JOCN-master\task a\images\cheetos_crunchy_chips.jpg ..\..\JOCN-master\task a\images\pringles_the original_potato crisps.jpg ..\..\JOCN-master\task a\images\slim_jim.jpg ..\..\JOCN-master\task a\images\annie's_chocolate_chip_bunny_grahams.jpg ..\..\JOCN-master\task a\images\m&m's_milk_chocholate.jpg,12,1.79918465148,..\..\JOCN-master\task a\images\pepperidge farms-goldish-cheddar.jpg,1.81244114456,6,7,3.16314295445,0,2
3,1.5,3,1.75 1.25 1.5,1.5,5.66370727029e-06,$1.5,7.17403599992e-06,n/a,n/a,,1,1
8,1.5,12,1.5 1.75,1.5,5.6637218222e-06,$1.75,3.77579999622e-06,n/a,n/a,,1,2
2,1.75,6,..\..\JOCN-master\task a\images\grandmas_oatmeal raisin_cookies.jpg ..\..\JOCN-master\task a\images\garden_veggie straws_cheddar.jpg ..\..\JOCN-master\task a\images\cliff_chocolate chip_bar.jpg ..\..\JOCN-master\task a\images\garden_veggie straws_sea salt.jpg ..\..\JOCN-master\task a\images\welch's_mixed fruit_fruit snacks.jpg ..\..\JOCN-master\task a\images\austin_peanut butter_cheese cracker.jpg,6,1.35307037583,..\..\JOCN-master\task a\images\garden_veggie straws_sea salt.jpg,2.13073555054,7,7,3.13829849896,0,1
1,0.75,6,..\..\JOCN-master\task a\images\annie's_chocolate_chip_bunny_grahams.jpg ..\..\JOCN-master\task a\images\pringles_the original_potato crisps.jpg ..\..\JOCN-master\task a\images\nabisco_chips ahhoy_mini.jpg ..\..\JOCN-master\task a\images\lance_toast_cheese_with_pb.JPG ..\..\JOCN-master\task a\images\keebler_chips delux_cookies_crackers.jpg ..\..\JOCN-master\task a\images\kars_mango pinapple_trail mix.jpg,6,1.36371098738,..\..\JOCN-master\task a\images\pringles_the original_potato crisps.jpg,2.3114318704,6,6,2.55106217324,0,1
6,1.75,3,1.0 1.5 1.75 0.75,1.75,1.18663264914,$1.5,2.38157547958,6,5,2.52555732851,0,2
6,0.5,12,..\..\JOCN-master\task a\images\nestle_crunch_bar.jpg ..\..\JOCN-master\task a\images\skinny_pop_popcorn.jpg ..\..\JOCN-master\task a\images\sourpatch_watermelon_candy.jpg ..\..\JOCN-master\task a\images\fig_newtons.jpg ..\..\JOCN-master\task a\images\slim_jim.jpg ..\..\JOCN-master\task a\images\keebler_chips_deluxe.jpg ..\..\JOCN-master\task a\images\nuture valley_crunchy_bar.jpg ..\..\JOCN-master\task a\images\stonyfield_fruit snacks.jpg ..\..\JOCN-master\task a\images\nature_valley_chewy.jpg ..\..\JOCN-master\task a\images\special_k_pastry_crisps_strawberry.jpg ..\..\JOCN-master\task a\images\haribo_gold_bears.jpg ..\..\JOCN-master\task a\images\fiber one_chocolate fudge_ brownie.jpg,12,2.00881765025,..\..\JOCN-master\task a\images\haribo_gold_bears.jpg,1.99005678063,6,5,3.62714890816,0,2
7,1.75,3,..\..\JOCN-master\task a\images\m&m's_peanut_butter.jpg ..\..\JOCN-master\task a\images\quaker_chewy_dark choc chunk.jpg ..\..\JOCN-master\task a\images\baked_cheetos_crunchy.jpg,3,5.66370727029e-06,..\..\JOCN-master\task a\images\quaker_chewy_dark choc chunk.jpg,9.43953637034e-06,n/a,n/a,,1,2
2,0.5,3,..\..\JOCN-master\task a\images\combos_cheddar cheese_pretzel.jpg ..\..\JOCN-master\task a\images\fiber one_chocolate fudge_ brownie.jpg ..\..\JOCN-master\task a\images\basil_vanilla.jpg,3,1.31830950924,..\..\JOCN-master\task a\images\combos_cheddar cheese_pretzel.jpg,1.27947907409,6,7,2.57934374904,0,1
7,1.5,3,..\..\JOCN-master\task a\images\planters_honey roasted_peanuts.jpg ..\..\JOCN-master\task a\images\m&m's_peanut_butter.jpg ..\..\JOCN-master\task a\images\lays_kc masterpiece_barbecue chips.jpg,3,5.28614327777e-06,..\..\JOCN-master\task a\images\m&m's_peanut_butter.jpg,8.30678618513e-06,n/a,n/a,,1,2
2,0.5,2,..\..\JOCN-master\task a\images\keebler_fudge_stripes.jpg ..\..\JOCN-master\task a\images\ritz_toasted_chips.jpg,2,1.49848703273,..\..\JOCN-master\task a\images\keebler_fudge_stripes.jpg,1.58934096248,6,6,3.05385702818,0,1
6,0.5,6,..\..\JOCN-master\task a\images\nutrigrain_strawberry_bar.jpg ..\..\JOCN-master\task a\images\jacklinks_beef_steak.jpg ..\..\JOCN-master\task a\images\skittles_original_candy.jpg ..\..\JOCN-master\task a\images\quaker_chewy_dark choc chunk.jpg ..\..\JOCN-master\task a\images\cheez itz_original.jpg ..\..\JOCN-master\task a\images\kind_almond_butter.jpg,6,1.60676028664,..\..\JOCN-master\task a\images\cheez itz_original.jpg,1.44009487856,6,7,2.90923517938,0,2
4,1.25,2,..\..\JOCN-master\task a\images\lance_van-o_cookies.jpg ..\..\JOCN-master\task a\images\cheetos_crunchy_chips.jpg,2,5.6637218222e-06,..\..\JOCN-master\task a\images\lance_van-o_cookies.jpg,1.01946789073e-05,n/a,n/a,,1,1
8,1.5,2,..\..\JOCN-master\task a\images\austin_vanilla creme_vanilla cookies.jpg ..\..\JOCN-master\task a\images\skittles_wild berry_candy.jpg,2,6.04130036663e-06,..\..\JOCN-master\task a\images\skittles_wild berry_candy.jpg,1.39704934554e-05,n/a,n/a,,1,2
2,1.0,3,..\..\JOCN-master\task a\images\lance_captain_wafers_with_honey_and_pb.JPG ..\..\JOCN-master\task a\images\kind_dark_chocolate.jpg ..\..\JOCN-master\task a\images\annie's_chocolate_bunny_grahams.jpg,3,1.74250596012,..\..\JOCN-master\task a\images\annie's_chocolate_bunny_grahams.jpg,2.05845974118,4,4,2.81912886011,0,1
1,1.5,12,1.5 0.5,1.5,2.23922251532,$1.5,2.86418787226,6,5,2.83076213225,0,1
1,1.5,12,..\..\JOCN-master\task a\images\nabisco_teddy graham_honey.jpg ..\..\JOCN-master\task a\images\nature_valley_chewy.jpg ..\..\JOCN-master\task a\images\kars_mango pinapple_trail mix.jpg ..\..\JOCN-master\task a\images\sun chips_french onion_chips.jpg ..\..\JOCN-master\task a\images\starburst_orignal_candy.jpg ..\..\JOCN-master\task a\images\pringles_sour cream and onion_potato crisps.jpg ..\..\JOCN-master\task a\images\jacklinks_beef_stick.jpg ..\..\JOCN-master\task a\images\baked_lays_barbeque.jpg ..\..\JOCN-master\task a\images\sunchips_harvest cheddar_chips.jpg ..\..\JOCN-master\task a\images\fiber one_cinamon_coffee cake.jpg ..\..\JOCN-master\task a\images\mini_cheese_nips.jpg ..\..\JOCN-master\task a\images\jacklinks_beef_jerky_original.jpg,12,1.78188464294,..\..\JOCN-master\task a\images\sunchips_harvest cheddar_chips.jpg,4.35501793888,6,6,2.82879682288,0,1
5,1.75,2,0.75 1.75,1.75,1.54829110592,$1.75,1.16587626367,6,6,2.13746933098,0,2
3,1.0,2,1.5 1.0 1.75 1.25,1.0,5.6637218222e-06,$1.0,3.77581454813e-06,n/a,n/a,,1,1
5,1.0,12,..\..\JOCN-master\task a\images\skittles_wild berry_candy.jpg ..\..\JOCN-master\task a\images\nutrigrain_strawberry_bar.jpg ..\..\JOCN-master\task a\images\fig_newtons.jpg ..\..\JOCN-master\task a\images\annie's_chocolate_bunny_grahams.jpg ..\..\JOCN-master\task a\images\starburst_orignal_candy.jpg ..\..\JOCN-master\task a\images\pringles_cheddar_potato crisps.jpg ..\..\JOCN-master\task a\images\sun chips_original_chips.jpg ..\..\JOCN-master\task a\images\starburst_verry berry_candy.jpg ..\..\JOCN-master\task a\images\nestle_babyruth_bar.jpg ..\..\JOCN-master\task a\images\nestle_crunch_bar.jpg ..\..\JOCN-master\task a\images\wheat_thins.jpg ..\..\JOCN-master\task a\images\planters_salted_peanuts.jpg,12,2.00454758616,..\..\JOCN-master\task a\images\fig_newtons.jpg,n/a,3,3,n/a,1,2
2,1.75,3,..\..\JOCN-master\task a\images\homefree_vanilla_minicookies.jpg ..\..\JOCN-master\task a\images\kettle_bbq.jpg ..\..\JOCN-master\task a\images\fritos_original_corn chips.jpg,3,2.19516749117,..\..\JOCN-master\task a\images\fritos_original_corn chips.jpg,4.13997571399,5,5,3.17222528902,0,1
4,0.5,6,1.25 1.75 1.5 0.5,0.5,5.28612872586e-06,$0.5,4.15339309257e-06,n/a,n/a,,1,1
2,1.25,3,1.25 0.75,1.25,1.89269146569,$1.25,2.59797435318,6,6,2.89045052216,0,1
5,1.75,6,..\..\JOCN-master\task a\images\jacklinks_beef_jerky_original.jpg ..\..\JOCN-master\task a\images\nabisco_nutter butter_cookies and crackers.jpg ..\..\JOCN-master\task a\images\nabisco_mini_ritz.jpg ..\..\JOCN-master\task a\images\quaker_chewy_chocolate chip.jpg ..\..\JOCN-master\task a\images\sourpatchkids_original_candy.jpg ..\..\JOCN-master\task a\images\keebler_vanilla_sugar_wafers.jpg,6,1.44869957311,..\..\JOCN-master\task a\images\nabisco_mini_ritz.jpg,2.12811702596,6,6,2.98124026314,0,2
8,0.5,12,..\..\JOCN-master\task a\images\kitkat_crisp wafers_milk choc.jpg ..\..\JOCN-master\task a\images\kind_dark_chocolate.jpg ..\..\JOCN-master\task a\images\nabisco_ritz bits_cookies.jpg ..\..\JOCN-master\task a\images\starburst_orignal_candy.jpg ..\..\JOCN-master\task a\images\grandmas_vanilla sandwhich creme_cookies.jpg ..\..\JOCN-master\task a\images\oreo_thin_crisps.jpg ..\..\JOCN-master\task a\images\barnum's_animal_crackers.jpg ..\..\JOCN-master\task a\images\keebler_cheese_and_peanut_butter.jpg ..\..\JOCN-master\task a\images\keebler_vanilla_sugar_wafers.jpg ..\..\JOCN-master\task a\images\garden_veggie straws_sea salt.jpg ..\..\JOCN-master\task a\images\starburst_favereds_candy.jpg ..\..\JOCN-master\task a\images\kettle_salt_vinegar.jpg,12,5.6637218222e-06,..\..\JOCN-master\task a\images\starburst_favereds_candy.jpg,1.28377578221e-05,n/a,n/a,,1,2
2,1.0,6,..\..\JOCN-master\task a\images\quaker_chewy_dark choc chunk.jpg ..\..\JOCN-master\task a\images\famous_amos_chocolate_chip.jpg ..\..\JOCN-master\task a\images\lance_toasty_with_pb.jpg ..\..\JOCN-master\task a\images\kind_dark_chocolate.jpg ..\..\JOCN-master\task a\images\swedish fish_original_candy.jpg ..\..\JOCN-master\task a\images\lance_captain_wafers_with_honey_and_pb.JPG,6,1.73131408023,..\..\JOCN-master\task a\images\lance_toasty_with_pb.jpg,2.96173065029,5,6,2.40211249045,0,1
8,1.25,6,1.0 1.25,1.25,5.6637218222e-06,$1.25,3.39822145179e-06,n/a,n/a,,1,2
3,0.5,6,..\..\JOCN-master\task a\images\nature_valley_sweet_and_salty.jpg ..\..\JOCN-master\task a\images\lance_van-o_cookies.jpg ..\..\JOCN-master\task a\images\kettle_salt_pepper.jpg ..\..\JOCN-master\task a\images\welch's_mixed fruit_fruit snacks.jpg ..\..\JOCN-master\task a\images\pringles_sour cream and onion_potato crisps.jpg ..\..\JOCN-master\task a\images\famous_amos_chocolate_chip.jpg,6,6.41887891106e-06,..\..\JOCN-master\task a\images\nature_valley_sweet_and_salty.jpg,9.06194327399e-06,n/a,n/a,,1,1
4,1.75,12,..\..\JOCN-master\task a\images\kind_almond_butter.jpg ..\..\JOCN-master\task a\images\slim_jim.jpg ..\..\JOCN-master\task a\images\barnum's_animal_crackers.jpg ..\..\JOCN-master\task a\images\nature_valley_sweet_and_salty.jpg ..\..\JOCN-master\task a\images\welch's_berry.jpg ..\..\JOCN-master\task a\images\garden_veggie straws_zesty ranch.jpg ..\..\JOCN-master\task a\images\kar's_yogurt apple_nut mix.jpg ..\..\JOCN-master\task a\images\m&m's_peanut.jpg ..\..\JOCN-master\task a\images\emerald_natural_almonds.jpg ..\..\JOCN-master\task a\images\lance_van-o_cookies.jpg ..\..\JOCN-master\task a\images\sunchips_harvest cheddar_chips.jpg ..\..\JOCN-master\task a\images\starburst_favereds_candy.jpg,12,5.6637218222e-06,..\..\JOCN-master\task a\images\kind_almond_butter.jpg,1.32153363666e-05,n/a,n/a,,1,1
6,1.75,12,..\..\JOCN-master\task a\images\nestle_babyruth_bar.jpg ..\..\JOCN-master\task a\images\belvita_golden_oats.JPG ..\..\JOCN-master\task a\images\nabisco_oreo_mini.jpg ..\..\JOCN-master\task a\images\nutrigrain_blueberry_bar.jpg ..\..\JOCN-master\task a\images\kettle_jalepeno.jpg ..\..\JOCN-master\task a\images\special_k_pastry_crisps_blueberry.jpg ..\..\JOCN-master\task a\images\skinny_pop_popcorn.jpg ..\..\JOCN-master\task a\images\keebler_chips_deluxe.jpg ..\..\JOCN-master\task a\images\starburst_orignal_candy.jpg ..\..\JOCN-master\task a\images\doritos_nacho cheesier_chips.jpg ..\..\JOCN-master\task a\images\pringles_cheddar_potato crisps.jpg ..\..\JOCN-master\task a\images\garden_veggie straws_sea salt.jpg,12,1.6596431557,..\..\JOCN-master\task a\images\skinny_pop_popcorn.jpg,3.65388957567,6,6,3.05549610752,0,2
5,1.25,3,..\..\JOCN-master\task a\images\belvita_blueberry.JPG ..\..\JOCN-master\task a\images\welch's_tropical_fruits.jpg ..\..\JOCN-master\task a\images\twix_milk chocolate_cookie bars.jpg,3,1.47516007548,..\..\JOCN-master\task a\images\twix_milk chocolate_cookie bars.jpg,2.1833178651,6,7,2.16740773241,0,2
8,0.75,12,..\..\JOCN-master\task a\images\nutrigrain_blueberry_bar.jpg ..\..\JOCN-master\task a\images\kettle_original.jpg ..\..\JOCN-master\task a\images\lance_van-o_cookies.jpg ..\..\JOCN-master\task a\images\mini_fudge_stripes.jpg ..\..\JOCN-master\task a\images\jacklinks_beef_steak.jpg ..\..\JOCN-master\task a\images\nabisco_ritz bits_cookies.jpg ..\..\JOCN-master\task a\images\emerald_cashews.jpg ..\..\JOCN-master\task a\images\nabisco_nutter butter_cookies and crackers.jpg ..\..\JOCN-master\task a\images\snickers_milk chocolate_candy bar.jpg ..\..\JOCN-master\task a\images\belvita_blueberry.JPG ..\..\JOCN-master\task a\images\keebler_chips_deluxe.jpg ..\..\JOCN-master\task a\images\cloverhill_cheese_danish.jpg,12,6.04128581472e-06,..\..\JOCN-master\task a\images\belvita_blueberry.JPG,1.05722720036e-05,n/a,n/a,,1,2
1,1.75,6,..\..\JOCN-master\task a\images\snickers_almond_bar.jpg ..\..\JOCN-master\task a\images\baked_ruffles_cheddar &sour.JPG ..\..\JOCN-master\task a\images\keebler_fudge_stripes.jpg ..\..\JOCN-master\task a\images\keebler_vanilla_sugar_wafers.jpg ..\..\JOCN-master\task a\images\nabisco_nutter butter_bites.jpg ..\..\JOCN-master\task a\images\skittles_sour_candy.jpg,6,1.30656334035,..\..\JOCN-master\task a\images\nabisco_nutter butter_bites.jpg,2.38739853453,7,7,2.9164375379,0,1
3,1.0,2,1.75 1.25 0.5 1.5 0.75 1.0,1.0,5.66370727029e-06,$1.5,3.3982360037e-06,n/a,n/a,,1,1
8,1.25,6,1.0 0.5 1.25,1.25,6.04130036663e-06,$0.5,3.39822145179e-06,n/a,n/a,,1,2
5,1.0,12,..\..\JOCN-master\task a\images\skittles_darkside_candy.jpg ..\..\JOCN-master\task a\images\baked_ruffles_cheddar &sour.JPG ..\..\JOCN-master\task a\images\doritos_nacho cheesier_chips.jpg ..\..\JOCN-master\task a\images\annie's_chocolate_bunny_grahams.jpg ..\..\JOCN-master\task a\images\nature_valley_chewy.jpg ..\..\JOCN-master\task a\images\lance_captain_wafers_with_honey_and_pb.JPG ..\..\JOCN-master\task a\images\3 musketeers_candy bar.jpg ..\..\JOCN-master\task a\images\mini_cheese_nips.jpg ..\..\JOCN-master\task a\images\welch's_berry.jpg ..\..\JOCN-master\task a\images\skittles_wild berry_candy.jpg ..\..\JOCN-master\task a\images\starburst_orignal_candy.jpg ..\..\JOCN-master\task a\images\m&m's_peanut_butter.jpg,12,1.47943882394,..\..\JOCN-master\task a\images\doritos_nacho cheesier_chips.jpg,2.36580996044,7,7,3.60917491745,0,2
2,1.0,12,..\..\JOCN-master\task a\images\nabisco_oreo_mini.jpg ..\..\JOCN-master\task a\images\special_k_cracker_chips.jpg ..\..\JOCN-master\task a\images\belvita_banana_bread.jpg ..\..\JOCN-master\task a\images\m&m's_peanut.jpg ..\..\JOCN-master\task a\images\austin_peanut_butter.jpg ..\..\JOCN-master\task a\images\hersey_milk_chocolate.jpg ..\..\JOCN-master\task a\images\kettle_original.jpg ..\..\JOCN-master\task a\images\nabisco_nutter butter_bites.jpg ..\..\JOCN-master\task a\images\keebler_chips_deluxe.jpg ..\..\JOCN-master\task a\images\annie's_chocolate_bunny_grahams.jpg ..\..\JOCN-master\task a\images\kellogg's_rice krispies_orignal.jpg ..\..\JOCN-master\task a\images\kind_dark_chocolate.jpg,12,1.58216201399,..\..\JOCN-master\task a\images\kettle_original.jpg,4.02368226102,6,7,2.35624205663,0,1
3,0.75,12,1.75 1.0 0.75 1.25 1.5 0.5,0.75,5.28612872586e-06,$1.25,3.3982360037e-06,n/a,n/a,,1,1
4,1.0,3,1.75 1.5 0.75 1.0,1.0,5.66370727029e-06,$1.5,3.77581454813e-06,n/a,n/a,,1,1
4,1.75,3,..\..\JOCN-master\task a\images\welch's_tropical_fruits.jpg ..\..\JOCN-master\task a\images\welch's_mixed fruit_fruit snacks.jpg ..\..\JOCN-master\task a\images\hersheys_milk choc_almond.jpg,3,6.04130036663e-06,..\..\JOCN-master\task a\images\hersheys_milk choc_almond.jpg,1.3592914911e-05,n/a,n/a,,1,1
2,1.75,6,..\..\JOCN-master\task a\images\doritos_cool ranch_chips.jpg ..\..\JOCN-master\task a\images\poptarts_brown_sugar.jpg ..\..\JOCN-master\task a\images\kettle_jalepeno.jpg ..\..\JOCN-master\task a\images\kind_almond_butter.jpg ..\..\JOCN-master\task a\images\cloverhill_cheese_danish.jpg ..\..\JOCN-master\task a\images\mini_fudge_stripes.jpg,6,1.41067414074,..\..\JOCN-master\task a\images\mini_fudge_stripes.jpg,2.52393863855,6,7,2.88994192048,0,1
4,0.75,2,0.75 1.5 1.0,0.75,1.39704934554e-05,$0.75,3.77581454813e-06,n/a,n/a,,1,1
5,1.75,12,..\..\JOCN-master\task a\images\pringles_the original_potato crisps.jpg ..\..\JOCN-master\task a\images\starburst_orignal_candy.jpg ..\..\JOCN-master\task a\images\special_k_pastry_crisps_blueberry.jpg ..\..\JOCN-master\task a\images\doritos_cool ranch_chips.jpg ..\..\JOCN-master\task a\images\grandmas_chocolate brownie_cookie.jpg ..\..\JOCN-master\task a\images\cloverhill_cheese_danish.jpg ..\..\JOCN-master\task a\images\jacklinks_beef_steak.jpg ..\..\JOCN-master\task a\images\sunchips_harvest cheddar_chips.jpg ..\..\JOCN-master\task a\images\lance_van-o_cookies.jpg ..\..\JOCN-master\task a\images\fig_newtons.jpg ..\..\JOCN-master\task a\images\slim_jim.jpg ..\..\JOCN-master\task a\images\snyders_mini_pretzels.jpg,12,1.96415585338,..\..\JOCN-master\task a\images\snyders_mini_pretzels.jpg,2.00484360971,6,4,4.47878674146,0,2
6,0.5,3,..\..\JOCN-master\task a\images\keebler_fudge_stripes.jpg ..\..\JOCN-master\task a\images\grandmas_vanilla sandwhich creme_cookies.jpg ..\..\JOCN-master\task a\images\kettle_bbq.jpg,3,1.49306270338,..\..\JOCN-master\task a\images\grandmas_vanilla sandwhich creme_cookies.jpg,2.82433532519,6,6,2.90757420035,0,2
4,1.5,2,0.5 1.0 1.5 0.75,1.5,4.90855018143e-06,$0.75,3.3982360037e-06,n/a,n/a,,1,1
6,1.75,3,..\..\JOCN-master\task a\images\welch's_tropical_fruits.jpg ..\..\JOCN-master\task a\images\emerald_dark_chocolate_almonds.jpg ..\..\JOCN-master\task a\images\planters_salted_peanuts.jpg,3,1.56069841923,..\..\JOCN-master\task a\images\welch's_tropical_fruits.jpg,1.92231723,5,2,4.02021795488,0,2
2,0.75,2,..\..\JOCN-master\task a\images\emerald_dark_chocolate_almonds.jpg ..\..\JOCN-master\task a\images\sun chips_original_chips.jpg,2,1.40397925116,..\..\JOCN-master\task a\images\sun chips_original_chips.jpg,1.55724279745,6,5,2.89233200853,0,1
7,0.75,2,0.75 0.5,0.75,6.04130036663e-06,$0.75,6.79645745549e-06,n/a,n/a,,1,2
6,1.25,6,..\..\JOCN-master\task a\images\belvita_golden_oats.JPG ..\..\JOCN-master\task a\images\special_k_pastry_crisps_blueberry.jpg ..\..\JOCN-master\task a\images\baked_cheetos_crunchy.jpg ..\..\JOCN-master\task a\images\kettle_bbq.jpg ..\..\JOCN-master\task a\images\grandmas_chocolate brownie_cookie.jpg ..\..\JOCN-master\task a\images\austin_vanilla creme_vanilla cookies.jpg,6,1.39432790194,..\..\JOCN-master\task a\images\belvita_golden_oats.JPG,2.32415899484,4,5,3.10591563782,0,2
1,0.75,6,..\..\JOCN-master\task a\images\combos_cheddar cheese_pretzel.jpg ..\..\JOCN-master\task a\images\nabisco_chips ahhoy_mini.jpg ..\..\JOCN-master\task a\images\pirates booty_aged white cheddar_ corn puffs.jpg ..\..\JOCN-master\task a\images\keebler_chips_deluxe.jpg ..\..\JOCN-master\task a\images\special_k_pastry_crisps_blueberry.jpg ..\..\JOCN-master\task a\images\basils_peanut_butter.jpg,6,1.19496661806,..\..\JOCN-master\task a\images\combos_cheddar cheese_pretzel.jpg,2.83295965394,7,7,3.02284327592,0,1
2,0.75,2,..\..\JOCN-master\task a\images\snickers_milk chocolate_candy bar.jpg ..\..\JOCN-master\task a\images\fiber one_oats and choc_chewy bar.jpg,2,1.40580787619,..\..\JOCN-master\task a\images\snickers_milk chocolate_candy bar.jpg,1.72920755555,6,5,2.61808507505,0,1
6,1.25,2,..\..\JOCN-master\task a\images\keebler_vanilla_sugar_wafers.jpg ..\..\JOCN-master\task a\images\sourpatch_watermelon_candy.jpg,2,1.82445010984,..\..\JOCN-master\task a\images\sourpatch_watermelon_candy.jpg,2.26316115385,6,7,2.44217723806,0,2
1,1.5,2,0.5 1.0 1.75 1.5,1.5,1.58683722254,$1.75,0.965712620033,7,7,2.27851208902,0,1
5,0.75,12,..\..\JOCN-master\task a\images\belvita_blueberry.JPG ..\..\JOCN-master\task a\images\fiber one_oats and choc_chewy bar.jpg ..\..\JOCN-master\task a\images\nabisco_teddy graham_honey.jpg ..\..\JOCN-master\task a\images\twix_milk chocolate_cookie bars.jpg ..\..\JOCN-master\task a\images\annie's_chocolate_bunny_grahams.jpg ..\..\JOCN-master\task a\images\jacklinks_beef_jerky_original.jpg ..\..\JOCN-master\task a\images\keebler_cheese_and_peanut_butter.jpg ..\..\JOCN-master\task a\images\homefree_vanilla_minicookies.jpg ..\..\JOCN-master\task a\images\nabisco_chips ahhoy_mini.jpg ..\..\JOCN-master\task a\images\welch's_white_grape_raspberry.jpg ..\..\JOCN-master\task a\images\quaker_chewy_peanut butter choc chip.jpg ..\..\JOCN-master\task a\images\nestle_babyruth_bar.jpg,12,1.37862468368,..\..\JOCN-master\task a\images\twix_milk chocolate_cookie bars.jpg,3.77025703453,5,6,2.39121814443,0,2
6,1.75,12,..\..\JOCN-master\task a\images\planters_salted_peanuts.jpg ..\..\JOCN-master\task a\images\slim_jim.jpg ..\..\JOCN-master\task a\images\nabisco_mini_ritz.jpg ..\..\JOCN-master\task a\images\starburst_favereds_candy.jpg ..\..\JOCN-master\task a\images\garden_veggie straws_cheddar.jpg ..\..\JOCN-master\task a\images\nature_valley_sweet_and_salty.jpg ..\..\JOCN-master\task a\images\keebler_chips_deluxe.jpg ..\..\JOCN-master\task a\images\baked_cheetos_crunchy.jpg ..\..\JOCN-master\task a\images\poptarts_brown_sugar.jpg ..\..\JOCN-master\task a\images\cheetos_crunchy_chips.jpg ..\..\JOCN-master\task a\images\cloverhill_cheese_danish.jpg ..\..\JOCN-master\task a\images\pirates booty_aged white cheddar_ corn puffs.jpg,12,1.71512869095,..\..\JOCN-master\task a\images\baked_cheetos_crunchy.jpg,3.05928588851,5,5,2.49183065641,0,2
5,1.5,3,..\..\JOCN-master\task a\images\grandmas_oatmeal raisin_cookies.jpg ..\..\JOCN-master\task a\images\special_k_pastry_crisps_strawberry.jpg ..\..\JOCN-master\task a\images\hersey_milk_chocolate.jpg,3,1.77223480407,..\..\JOCN-master\task a\images\grandmas_oatmeal raisin_cookies.jpg,2.05053016156,4,5,2.55309167139,0,2
3,0.5,3,..\..\JOCN-master\task a\images\m&m's_peanut.jpg ..\..\JOCN-master\task a\images\starburst_orignal_candy.jpg ..\..\JOCN-master\task a\images\3 musketeers_candy bar.jpg,3,5.6637218222e-06,..\..\JOCN-master\task a\images\m&m's_peanut.jpg,1.13274290925e-05,n/a,n/a,,1,1
2,1.0,2,..\..\JOCN-master\task a\images\combos_cheddar cheese_pretzel.jpg ..\..\JOCN-master\task a\images\homefree_vanilla_minicookies.jpg,2,1.6292660051,..\..\JOCN-master\task a\images\combos_cheddar cheese_pretzel.jpg,1.07690608577,7,7,3.69313837063,0,1
2,1.25,12,..\..\JOCN-master\task a\images\chex mix_original_traditional.jpg ..\..\JOCN-master\task a\images\starburst_verry berry_candy.jpg ..\..\JOCN-master\task a\images\cheetos_crunchy_chips.jpg ..\..\JOCN-master\task a\images\starburst_orignal_candy.jpg ..\..\JOCN-master\task a\images\sourpatchkids_original_candy.jpg ..\..\JOCN-master\task a\images\lance_toasty_with_pb.jpg ..\..\JOCN-master\task a\images\baked_cheetos_crunchy.jpg ..\..\JOCN-master\task a\images\nabisco_mini_ritz.jpg ..\..\JOCN-master\task a\images\sunchips_harvest cheddar_chips.jpg ..\..\JOCN-master\task a\images\keebler_chips_deluxe.jpg ..\..\JOCN-master\task a\images\quaker_chewy_dark choc chunk.jpg ..\..\JOCN-master\task a\images\pepperidge farms-goldish-cheddar.jpg,12,1.42123546031,..\..\JOCN-master\task a\images\nabisco_mini_ritz.jpg,2.31859231743,7,7,2.22152378119,0,1
7,1.75,2,1.75 1.25 1.0 0.75 0.5 1.5,1.75,5.6637218222e-06,$0.75,3.77579999622e-06,n/a,n/a,,1,2
6,1.75,2,1.25 1.5 0.75 1.75 1.0 0.5,1.75,1.44448878925,$1.75,1.11547108146,6,6,2.32855441584,0,2
2,1.0,2,1.0 0.75 1.75 1.5 0.5 1.25,1.0,1.53114892627,$0.5,2.43156834329,5,5,2.5871929039,0,1
5,1.25,6,..\..\JOCN-master\task a\images\jacklinks_beef_steak.jpg ..\..\JOCN-master\task a\images\sunchips_harvest cheddar_chips.jpg ..\..\JOCN-master\task a\images\kettle_bbq.jpg ..\..\JOCN-master\task a\images\snyders_mini_pretzels.jpg ..\..\JOCN-master\task a\images\snickers_almond_bar.jpg ..\..\JOCN-master\task a\images\baked_cheetos_crunchy.jpg,6,1.17556839163,..\..\JOCN-master\task a\images\jacklinks_beef_steak.jpg,3.43412569976,6,6,2.33085161896,0,2
3,0.75,12,..\..\JOCN-master\task a\images\keebler_chips delux_cookies_crackers.jpg ..\..\JOCN-master\task a\images\sun chips_french onion_chips.jpg ..\..\JOCN-master\task a\images\poptarts_strawberry_frosted.jpg ..\..\JOCN-master\task a\images\kitkat_crisp wafers_milk choc.jpg ..\..\JOCN-master\task a\images\basil_vanilla.jpg ..\..\JOCN-master\task a\images\kettle_original.jpg ..\..\JOCN-master\task a\images\austin_cheddar cheese_cheese cracker.jpg ..\..\JOCN-master\task a\images\quaker_chewy_dark choc chunk.jpg ..\..\JOCN-master\task a\images\fiber one_oats and choc_chewy bar.jpg ..\..\JOCN-master\task a\images\snickers_almond_bar.jpg ..\..\JOCN-master\task a\images\hersey_milk_chocolate.jpg ..\..\JOCN-master\task a\images\planters_salted_peanuts.jpg,12,6.04130036663e-06,..\..\JOCN-master\task a\images\quaker_chewy_dark choc chunk.jpg,1.05722720036e-05,n/a,n/a,,1,1
6,1.0,2,..\..\JOCN-master\task a\images\planters_salted_peanuts.jpg ..\..\JOCN-master\task a\images\kettle_salt_vinegar.jpg,2,1.79498179682,..\..\JOCN-master\task a\images\planters_salted_peanuts.jpg,1.65671690257,5,5,2.36790138188,0,2
7,0.5,12,0.5 1.5,0.5,6.04128581472e-06,$1.5,3.39822145179e-06,n/a,n/a,,1,2
5,1.5,6,..\..\JOCN-master\task a\images\basils_peanut_butter.jpg ..\..\JOCN-master\task a\images\lance_van-o_cookies.jpg ..\..\JOCN-master\task a\images\nestle_babyruth_bar.jpg ..\..\JOCN-master\task a\images\keebler_cheese_and_peanut_butter.jpg ..\..\JOCN-master\task a\images\kars_mango pinapple_trail mix.jpg ..\..\JOCN-master\task a\images\belvita_golden_oats.JPG,6,2.05321211975,..\..\JOCN-master\task a\images\kars_mango pinapple_trail mix.jpg,2.8883496612,3,4,2.69428772734,0,2
8,1.75,3,1.75 0.75 1.5,1.75,5.28612872586e-06,$0.75,4.15339309257e-06,n/a,n/a,,1,2
1,1.5,2,..\..\JOCN-master\task a\images\pringles_sour cream and onion_potato crisps.jpg ..\..\JOCN-master\task a\images\cliff_chocolate chip_bar.jpg,2,0.958544243826,..\..\JOCN-master\task a\images\pringles_sour cream and onion_potato crisps.jpg,1.35804500616,7,7,2.58331665683,0,1
2,1.5,2,..\..\JOCN-master\task a\images\jacklinks_beef_steak.jpg ..\..\JOCN-master\task a\images\pringles_cheddar_potato crisps.jpg,2,1.75474109645,..\..\JOCN-master\task a\images\pringles_cheddar_potato crisps.jpg,2.51697906463,6,6,3.03069733935,0,1
3,1.75,6,0.5 1.75,1.75,5.6637218222e-06,$1.75,4.53098618891e-06,n/a,n/a,,1,1
7,1.5,12,..\..\JOCN-master\task a\images\grandma's_peanut butter_cookies.jpg ..\..\JOCN-master\task a\images\stonyfield_fruit snacks.jpg ..\..\JOCN-master\task a\images\mini_fudge_stripes.jpg ..\..\JOCN-master\task a\images\poptarts_strawberry_frosted.jpg ..\..\JOCN-master\task a\images\nestle_babyruth_bar.jpg ..\..\JOCN-master\task a\images\planters_honey roasted_peanuts.jpg ..\..\JOCN-master\task a\images\m&m's_peanut.jpg ..\..\JOCN-master\task a\images\emerald_natural_almonds.jpg ..\..\JOCN-master\task a\images\nabisco_nutter butter_cookies and crackers.jpg ..\..\JOCN-master\task a\images\nabisco_chips ahhoy_mini.jpg ..\..\JOCN-master\task a\images\teddy_grahams_chocolate.jpg ..\..\JOCN-master\task a\images\lays_kc masterpiece_barbecue chips.jpg,12,5.6637218222e-06,..\..\JOCN-master\task a\images\nestle_babyruth_bar.jpg,9.81710036285e-06,n/a,n/a,,1,2
1,1.5,6,..\..\JOCN-master\task a\images\austin_vanilla creme_vanilla cookies.jpg ..\..\JOCN-master\task a\images\sunchips_harvest cheddar_chips.jpg ..\..\JOCN-master\task a\images\combos_cheddar cheese_pretzel.jpg ..\..\JOCN-master\task a\images\special_k_pastry_crisps_strawberry.jpg ..\..\JOCN-master\task a\images\sourpatchkids_original_candy.jpg ..\..\JOCN-master\task a\images\special_k_pastry_crisps_blueberry.jpg,6,1.12978971002,..\..\JOCN-master\task a\images\combos_cheddar cheese_pretzel.jpg,3.11452939431,7,7,2.81897367431,0,1
1,1.75,12,..\..\JOCN-master\task a\images\belvita_banana_bread.jpg ..\..\JOCN-master\task a\images\annie's_chocolate_chip_bunny_grahams.jpg ..\..\JOCN-master\task a\images\lays_classic_potato chips.jpg ..\..\JOCN-master\task a\images\keebler_chips delux_cookies_crackers.jpg ..\..\JOCN-master\task a\images\austin_peanut_butter.jpg ..\..\JOCN-master\task a\images\nabisco_nutter butter_cookies and crackers.jpg ..\..\JOCN-master\task a\images\nutrigrain_strawberry_bar.jpg ..\..\JOCN-master\task a\images\planters_salted_peanuts.jpg ..\..\JOCN-master\task a\images\special_k_cracker_chips.jpg ..\..\JOCN-master\task a\images\nabisco_ritz bits_cookies.jpg ..\..\JOCN-master\task a\images\ct_crunch_cereal_bar.jpg ..\..\JOCN-master\task a\images\kar's_yogurt apple_nut mix.jpg,12,1.78924785099,..\..\JOCN-master\task a\images\nabisco_ritz bits_cookies.jpg,2.56776107276,7,7,2.55514646746,0,1
5,1.0,6,..\..\JOCN-master\task a\images\starburst_verry berry_candy.jpg ..\..\JOCN-master\task a\images\skittles_sour_candy.jpg ..\..\JOCN-master\task a\images\cheez-it_white_cheddar.JPG ..\..\JOCN-master\task a\images\lance_captain_wafers_with_honey_and_pb.JPG ..\..\JOCN-master\task a\images\austin_peanut butter_cheese cracker.jpg ..\..\JOCN-master\task a\images\skittles_wild berry_candy.jpg,6,1.67326779029,..\..\JOCN-master\task a\images\skittles_wild berry_candy.jpg,2.322314889,6,6,2.43077655585,0,2
2,1.25,12,..\..\JOCN-master\task a\images\fiber one_chocolate fudge_ brownie.jpg ..\..\JOCN-master\task a\images\nabisco_chips ahhoy_mini.jpg ..\..\JOCN-master\task a\images\starburst_verry berry_candy.jpg ..\..\JOCN-master\task a\images\starburst_favereds_candy.jpg ..\..\JOCN-master\task a\images\snickers_milk chocolate_candy bar.jpg ..\..\JOCN-master\task a\images\lays_kc masterpiece_barbecue chips.jpg ..\..\JOCN-master\task a\images\keebler_chips delux_cookies_crackers.jpg ..\..\JOCN-master\task a\images\keebler_chips_deluxe.jpg ..\..\JOCN-master\task a\images\welch's_mixed fruit_fruit snacks.jpg ..\..\JOCN-master\task a\images\fiber one_oats and choc_chewy bar.jpg ..\..\JOCN-master\task a\images\pirates booty_aged white cheddar_ corn puffs.jpg ..\..\JOCN-master\task a\images\planters_salted_peanuts.jpg,12,1.54097547309,..\..\JOCN-master\task a\images\lays_kc masterpiece_barbecue chips.jpg,2.90677674917,7,7,2.26495655173,0,1
1,0.5,2,..\..\JOCN-master\task a\images\lance_toast_cheese_with_pb.JPG ..\..\JOCN-master\task a\images\3 musketeers_candy bar.jpg,2,1.09778405233,..\..\JOCN-master\task a\images\lance_toast_cheese_with_pb.JPG,2.34352399415,5,5,2.35923363129,0,1
6,1.25,12,..\..\JOCN-master\task a\images\nestle_crunch_bar.jpg ..\..\JOCN-master\task a\images\lays_kc masterpiece_barbecue chips.jpg ..\..\JOCN-master\task a\images\starburst_favereds_candy.jpg ..\..\JOCN-master\task a\images\emerald_dark_chocolate_almonds.jpg ..\..\JOCN-master\task a\images\welch's_white_grape_raspberry.jpg ..\..\JOCN-master\task a\images\swedish fish_original_candy.jpg ..\..\JOCN-master\task a\images\belvita_banana_bread.jpg ..\..\JOCN-master\task a\images\nestle_butterfinger_bar.jpg ..\..\JOCN-master\task a\images\nabisco_nutter butter_cookies and crackers.jpg ..\..\JOCN-master\task a\images\annie's_cheddar_bunnies.jpg ..\..\JOCN-master\task a\images\sun chips_original_chips.jpg ..\..\JOCN-master\task a\images\austin_vanilla creme_vanilla cookies.jpg,12,1.23031424559,..\..\JOCN-master\task a\images\belvita_banana_bread.jpg,3.10267750274,4,4,2.87302138092,0,2
2,1.75,6,..\..\JOCN-master\task a\images\quaker_chewy_chocolate chip.jpg ..\..\JOCN-master\task a\images\starburst_verry berry_candy.jpg ..\..\JOCN-master\task a\images\fiber one_oats and choc_chewy bar.jpg ..\..\JOCN-master\task a\images\sun chips_original_chips.jpg ..\..\JOCN-master\task a\images\annie's_honey_bunny_grahams.jpg ..\..\JOCN-master\task a\images\planters_salted_peanuts.jpg,6,1.07976815014,..\..\JOCN-master\task a\images\starburst_verry berry_candy.jpg,4.22609251189,6,5,2.49346482719,0,1
3,1.5,3,..\..\JOCN-master\task a\images\welch's_tropical_fruits.jpg ..\..\JOCN-master\task a\images\starburst_verry berry_candy.jpg ..\..\JOCN-master\task a\images\m&m's_peanut.jpg,3,5.6637218222e-06,..\..\JOCN-master\task a\images\m&m's_peanut.jpg,1.13274290925e-05,n/a,n/a,,1,1
6,1.5,2,..\..\JOCN-master\task a\images\snyders_mini_pretzels.jpg ..\..\JOCN-master\task a\images\special_k_pastry_crisps_strawberry.jpg,2,1.24316899244,..\..\JOCN-master\task a\images\snyders_mini_pretzels.jpg,1.16487378598,6,5,3.67566769544,0,2
1,0.5,6,..\..\JOCN-master\task a\images\nabisco_teddy graham_honey.jpg ..\..\JOCN-master\task a\images\belvita_banana_bread.jpg ..\..\JOCN-master\task a\images\keebler_chips_deluxe.jpg ..\..\JOCN-master\task a\images\belvita_blueberry.JPG ..\..\JOCN-master\task a\images\keebler_vanilla_sugar_wafers.jpg ..\..\JOCN-master\task a\images\annie's_chocolate_chip_bunny_grahams.jpg,6,1.36988179448,..\..\JOCN-master\task a\images\keebler_vanilla_sugar_wafers.jpg,2.67188131268,7,7,2.55568149981,0,1
8,1.5,12,0.75 1.0 1.5,1.5,5.6637218222e-06,$1.0,3.77581454813e-06,n/a,n/a,,1,2
5,0.5,12,..\..\JOCN-master\task a\images\cloverhill_cheese_danish.jpg ..\..\JOCN-master\task a\images\jacklinks_beef_jerky_original.jpg ..\..\JOCN-master\task a\images\wheat_thins.jpg ..\..\JOCN-master\task a\images\fiber one_cinamon_coffee cake.jpg ..\..\JOCN-master\task a\images\combos_cheddar cheese_pretzel.jpg ..\..\JOCN-master\task a\images\welch's_tropical_fruits.jpg ..\..\JOCN-master\task a\images\nestle_babyruth_bar.jpg ..\..\JOCN-master\task a\images\twix_milk chocolate_cookie bars.jpg ..\..\JOCN-master\task a\images\poptarts_strawberry_frosted.jpg ..\..\JOCN-master\task a\images\chex mix_original_traditional.jpg ..\..\JOCN-master\task a\images\pringles_sour cream and onion_potato crisps.jpg ..\..\JOCN-master\task a\images\pirates booty_aged white cheddar_ corn puffs.jpg,12,1.09741742114,..\..\JOCN-master\task a\images\twix_milk chocolate_cookie bars.jpg,1.11277175452,6,6,2.55366408428,0,2
1,1.5,12,..\..\JOCN-master\task a\images\austin_vanilla creme_vanilla cookies.jpg ..\..\JOCN-master\task a\images\nestle_babyruth_bar.jpg ..\..\JOCN-master\task a\images\baked_ruffles_cheddar &sour.JPG ..\..\JOCN-master\task a\images\kettle_salt_vinegar.jpg ..\..\JOCN-master\task a\images\poptarts_strawberry_frosted.jpg ..\..\JOCN-master\task a\images\kettle_original.jpg ..\..\JOCN-master\task a\images\twix_milk chocolate_cookie bars.jpg ..\..\JOCN-master\task a\images\quakers_popped_rice_crisps.jpg ..\..\JOCN-master\task a\images\garden_veggie straws_sea salt.jpg ..\..\JOCN-master\task a\images\sourpatch_watermelon_candy.jpg ..\..\JOCN-master\task a\images\kars_mango pinapple_trail mix.jpg ..\..\JOCN-master\task a\images\mini_fudge_stripes.jpg,12,1.09044010093,..\..\JOCN-master\task a\images\kettle_salt_vinegar.jpg,3.17811366549,7,7,2.13019825271,0,1
7,1.0,2,1.0 1.75 1.5,1.0,6.04128581472e-06,$1.5,3.77579999622e-06,n/a,n/a,,1,2
8,0.75,2,..\..\JOCN-master\task a\images\baked_cheetos_crunchy.jpg ..\..\JOCN-master\task a\images\lance_toast_cheese_with_pb.JPG,2,7.55162909627e-06,..\..\JOCN-master\task a\images\baked_cheetos_crunchy.jpg,9.81710036285e-06,n/a,n/a,,1,2
1,1.25,3,..\..\JOCN-master\task a\images\mini_cheese_nips.jpg ..\..\JOCN-master\task a\images\annie's_chocolate_bunny_grahams.jpg ..\..\JOCN-master\task a\images\m&m's_milk_chocholate.jpg,3,1.13945842796,..\..\JOCN-master\task a\images\mini_cheese_nips.jpg,1.47048713241,7,7,2.01807291695,0,1
4,1.25,6,..\..\JOCN-master\task a\images\kars_mango pinapple_trail mix.jpg ..\..\JOCN-master\task a\images\doritos_nacho cheesier_chips.jpg ..\..\JOCN-master\task a\images\annie's_chocolate_chip_bunny_grahams.jpg ..\..\JOCN-master\task a\images\skittles_darkside_candy.jpg ..\..\JOCN-master\task a\images\starburst_orignal_candy.jpg ..\..\JOCN-master\task a\images\stonyfield_fruit snacks.jpg,6,6.79645745549e-06,..\..\JOCN-master\task a\images\kars_mango pinapple_trail mix.jpg,9.43952181842e-06,n/a,n/a,,1,1
6,0.5,3,1.75 0.75 0.5,0.5,2.1214036349,$0.75,0.84901175712,6,4,3.12349618907,0,2
1,1.25,2,..\..\JOCN-master\task a\images\baked_ruffles_cheddar &sour.JPG ..\..\JOCN-master\task a\images\grandmas_oatmeal raisin_cookies.jpg,2,1.88039516122,..\..\JOCN-master\task a\images\baked_ruffles_cheddar &sour.JPG,1.70538898777,7,7,1.9313931457,0,1
1,1.25,12,..\..\JOCN-master\task a\images\snyders_mini_pretzels.jpg ..\..\JOCN-master\task a\images\pepperidge farms-goldish-cheddar.jpg ..\..\JOCN-master\task a\images\skittles_sour_candy.jpg ..\..\JOCN-master\task a\images\ritz_toasted_chips.jpg ..\..\JOCN-master\task a\images\pringles_the original_potato crisps.jpg ..\..\JOCN-master\task a\images\nutrigrain_apple cinnamon_bar.jpg ..\..\JOCN-master\task a\images\quakers_popped_rice_crisps.jpg ..\..\JOCN-master\task a\images\lance_toasty_with_pb.jpg ..\..\JOCN-master\task a\images\fiber one_cinamon_coffee cake.jpg ..\..\JOCN-master\task a\images\fiber one_oats and choc_chewy bar.jpg ..\..\JOCN-master\task a\images\baked_lays_sour cream and onion.jpg ..\..\JOCN-master\task a\images\kettle_salt_vinegar.jpg,12,1.12516283183,..\..\JOCN-master\task a\images\pepperidge farms-goldish-cheddar.jpg,2.42348546577,7,7,2.02736782965,0,1
5,1.0,2,..\..\JOCN-master\task a\images\chex mix_original_traditional.jpg ..\..\JOCN-master\task a\images\welch's_white_grape_raspberry.jpg,2,1.07727913585,..\..\JOCN-master\task a\images\chex mix_original_traditional.jpg,1.37921295495,6,7,2.11578220823,0,2
1,1.0,3,..\..\JOCN-master\task a\images\sourpatchkids_original_candy.jpg ..\..\JOCN-master\task a\images\3 musketeers_candy bar.jpg ..\..\JOCN-master\task a\images\basil_vanilla.jpg,3,0.938197911368,..\..\JOCN-master\task a\images\sourpatchkids_original_candy.jpg,2.09115523942,6,6,2.10641102416,0,1
2,1.75,12,..\..\JOCN-master\task a\images\garden_veggie straws_cheddar.jpg ..\..\JOCN-master\task a\images\hersey_milk_chocolate.jpg ..\..\JOCN-master\task a\images\kettle_salt_pepper.jpg ..\..\JOCN-master\task a\images\fritos_original_corn chips.jpg ..\..\JOCN-master\task a\images\sourpatchkids_original_candy.jpg ..\..\JOCN-master\task a\images\nutrigrain_apple cinnamon_bar.jpg ..\..\JOCN-master\task a\images\baked_ruffles_cheddar &sour.JPG ..\..\JOCN-master\task a\images\sun chips_original_chips.jpg ..\..\JOCN-master\task a\images\haribo_gold_bears.jpg ..\..\JOCN-master\task a\images\austin_peanut butter_cheese cracker.jpg ..\..\JOCN-master\task a\images\lays_kc masterpiece_barbecue chips.jpg ..\..\JOCN-master\task a\images\doritos_nacho cheesier_chips.jpg,12,0.845177421565,..\..\JOCN-master\task a\images\garden_veggie straws_cheddar.jpg,2.97162402896,7,7,2.22793019886,0,1
5,0.5,2,..\..\JOCN-master\task a\images\nature_valley_chewy.jpg ..\..\JOCN-master\task a\images\annie's_chocolate_chip_bunny_grahams.jpg,2,0.992085523627,..\..\JOCN-master\task a\images\annie's_chocolate_chip_bunny_grahams.jpg,1.09023696231,6,5,1.84350435992,0,2
6,1.5,2,0.5 0.75 1.5 1.25,1.5,1.0309510738,$1.25,1.14936653228,6,6,2.45288845726,0,2
6,1.5,12,..\..\JOCN-master\task a\images\emerald_natural_almonds.jpg ..\..\JOCN-master\task a\images\nature_valley_chewy.jpg ..\..\JOCN-master\task a\images\starburst_verry berry_candy.jpg ..\..\JOCN-master\task a\images\oreo_thin_crisps.jpg ..\..\JOCN-master\task a\images\nabisco_chips ahhoy_mini.jpg ..\..\JOCN-master\task a\images\pringles_the original_potato crisps.jpg ..\..\JOCN-master\task a\images\quaker_chewy_dark choc chunk.jpg ..\..\JOCN-master\task a\images\keebler_chips_deluxe.jpg ..\..\JOCN-master\task a\images\quaker_chewy_chocolate chip.jpg ..\..\JOCN-master\task a\images\m&m's_peanut_butter.jpg ..\..\JOCN-master\task a\images\austin_vanilla creme_vanilla cookies.jpg ..\..\JOCN-master\task a\images\chex mix_original_traditional.jpg,12,1.08032017363,..\..\JOCN-master\task a\images\nature_valley_chewy.jpg,2.47645668882,6,6,2.43908371651,0,2
6,0.5,6,..\..\JOCN-master\task a\images\nutrigrain_apple cinnamon_bar.jpg ..\..\JOCN-master\task a\images\reeses_peanut butter cups_milk choc.jpg ..\..\JOCN-master\task a\images\kitkat_crisp wafers_milk choc.jpg ..\..\JOCN-master\task a\images\oreo_thin_crisps.jpg ..\..\JOCN-master\task a\images\wheat_thins.jpg ..\..\JOCN-master\task a\images\quakers_popped_rice_crisps.jpg,6,0.968963215302,..\..\JOCN-master\task a\images\nutrigrain_apple cinnamon_bar.jpg,1.44546898965,6,6,1.91378842926,0,2
8,1.5,3,..\..\JOCN-master\task a\images\oreo_thin_crisps.jpg ..\..\JOCN-master\task a\images\annie's_cheddar_bunnies.jpg ..\..\JOCN-master\task a\images\emerald_natural_almonds.jpg,3,5.66370727029e-06,..\..\JOCN-master\task a\images\emerald_natural_almonds.jpg,9.81711491477e-06,n/a,n/a,,1,2
3,0.5,12,1.75 1.5 0.5,0.5,5.66370727029e-06,$0.5,3.77581454813e-06,n/a,n/a,,1,1
7,1.5,2,1.5 1.25 0.5,1.5,6.04130036663e-06,$1.25,3.77581454813e-06,n/a,n/a,,1,2
4,1.5,3,..\..\JOCN-master\task a\images\garden_veggie straws_cheddar.jpg ..\..\JOCN-master\task a\images\kind_almond_butter.jpg ..\..\JOCN-master\task a\images\lance_captain_wafers_with_honey_and_pb.JPG,3,5.6637218222e-06,..\..\JOCN-master\task a\images\kind_almond_butter.jpg,9.43953637034e-06,n/a,n/a,,1,1
2,0.75,6,..\..\JOCN-master\task a\images\kettle_salt_pepper.jpg ..\..\JOCN-master\task a\images\cheetos_crunchy_chips.jpg ..\..\JOCN-master\task a\images\starburst_orignal_candy.jpg ..\..\JOCN-master\task a\images\keebler_cheese_and_peanut_butter.jpg ..\..\JOCN-master\task a\images\doritos_nacho cheesier_chips.jpg ..\..\JOCN-master\task a\images\nestle_crunch_bar.jpg,6,1.17124697652,..\..\JOCN-master\task a\images\doritos_nacho cheesier_chips.jpg,1.24288693939,7,7,2.73974282198,0,1
4,1.5,6,..\..\JOCN-master\task a\images\belvita_banana_bread.jpg ..\..\JOCN-master\task a\images\keebler_cheese_and_peanut_butter.jpg ..\..\JOCN-master\task a\images\twix_milk chocolate_cookie bars.jpg ..\..\JOCN-master\task a\images\kettle_salt_pepper.jpg ..\..\JOCN-master\task a\images\kettle_bbq.jpg ..\..\JOCN-master\task a\images\skittles_darkside_candy.jpg,6,6.41887891106e-06,..\..\JOCN-master\task a\images\keebler_cheese_and_peanut_butter.jpg,1.05722720036e-05,n/a,n/a,,1,1
6,1.75,3,..\..\JOCN-master\task a\images\teddy_grahams_chocolate.jpg ..\..\JOCN-master\task a\images\austin_cheddar cheese_cheese cracker.jpg ..\..\JOCN-master\task a\images\belvita_banana_bread.jpg,3,1.17616610244,..\..\JOCN-master\task a\images\teddy_grahams_chocolate.jpg,2.09229100322,6,6,2.47742254112,0,2
4,1.25,12,..\..\JOCN-master\task a\images\snickers_almond_bar.jpg ..\..\JOCN-master\task a\images\kettle_salt_vinegar.jpg ..\..\JOCN-master\task a\images\emerald_natural_almonds.jpg ..\..\JOCN-master\task a\images\kars_mango pinapple_trail mix.jpg ..\..\JOCN-master\task a\images\fiber one_chocolate fudge_ brownie.jpg ..\..\JOCN-master\task a\images\welch's_tropical_fruits.jpg ..\..\JOCN-master\task a\images\chex mix_original_traditional.jpg ..\..\JOCN-master\task a\images\keebler_chips delux_cookies_crackers.jpg ..\..\JOCN-master\task a\images\barnum's_animal_crackers.jpg ..\..\JOCN-master\task a\images\planters_honey roasted_peanuts.jpg ..\..\JOCN-master\task a\images\nature_valley_sweet_and_salty.jpg ..\..\JOCN-master\task a\images\fig_newtons.jpg,12,5.66370727029e-06,..\..\JOCN-master\task a\images\planters_honey roasted_peanuts.jpg,9.43952181842e-06,n/a,n/a,,1,1
6,1.0,6,..\..\JOCN-master\task a\images\pringles_sour cream and onion_potato crisps.jpg ..\..\JOCN-master\task a\images\stonyfield_fruit snacks.jpg ..\..\JOCN-master\task a\images\austin_peanut_butter.jpg ..\..\JOCN-master\task a\images\basil_vanilla.jpg ..\..\JOCN-master\task a\images\jacklinks_beef_steak.jpg ..\..\JOCN-master\task a\images\starburst_favereds_candy.jpg,6,1.19746280639,..\..\JOCN-master\task a\images\basil_vanilla.jpg,1.99367476226,5,5,2.52948341626,0,2
5,0.5,3,..\..\JOCN-master\task a\images\starburst_verry berry_candy.jpg ..\..\JOCN-master\task a\images\skittles_darkside_candy.jpg ..\..\JOCN-master\task a\images\belvita_golden_oats.JPG,3,1.56366205288,..\..\JOCN-master\task a\images\belvita_golden_oats.JPG,0.756082264328,6,6,2.45148951947,0,2
1,1.5,2,1.0 1.25 1.5,1.5,1.45886292221,$1.5,2.06470493173,6,7,2.22350570413,0,1
1,1.75,3,..\..\JOCN-master\task a\images\keebler_cheese_and_peanut_butter.jpg ..\..\JOCN-master\task a\images\sourpatchkids_original_candy.jpg ..\..\JOCN-master\task a\images\homefree_chocolatechip_minicookies.jpg,3,0.93783996455,..\..\JOCN-master\task a\images\keebler_cheese_and_peanut_butter.jpg,2.04493327765,4,5,2.2076019903,0,1
6,0.5,2,..\..\JOCN-master\task a\images\quakers_popped_rice_crisps.jpg ..\..\JOCN-master\task a\images\jacklinks_beef_jerky_original.jpg,2,1.00406956855,..\..\JOCN-master\task a\images\jacklinks_beef_jerky_original.jpg,0.997879882401,5,6,2.18967935062,0,2
5,1.75,12,1.75 1.0,1.75,1.25197304977,$1.75,1.16582151443,6,6,2.57419127802,0,2
3,0.5,3,..\..\JOCN-master\task a\images\reeses_peanut butter cups_milk choc.jpg ..\..\JOCN-master\task a\images\annie's_chocolate_chip_bunny_grahams.jpg ..\..\JOCN-master\task a\images\baked_lays_classic.jpg,3,6.04130036663e-06,..\..\JOCN-master\task a\images\reeses_peanut butter cups_milk choc.jpg,9.43952181842e-06,n/a,n/a,,1,1
6,0.5,6,..\..\JOCN-master\task a\images\annie's_chocolate_chip_bunny_grahams.jpg ..\..\JOCN-master\task a\images\twix_milk chocolate_cookie bars.jpg ..\..\JOCN-master\task a\images\nuture valley_crunchy_bar.jpg ..\..\JOCN-master\task a\images\baked_lays_sour cream and onion.jpg ..\..\JOCN-master\task a\images\garden_veggie straws_cheddar.jpg ..\..\JOCN-master\task a\images\nutrigrain_blueberry_bar.jpg,6,1.33297286929,..\..\JOCN-master\task a\images\nuture valley_crunchy_bar.jpg,1.55857150516,6,6,2.09270709754,0,2
1,0.75,3,..\..\JOCN-master\task a\images\starburst_favereds_candy.jpg ..\..\JOCN-master\task a\images\quaker_chewy_peanut butter choc chip.jpg ..\..\JOCN-master\task a\images\grandmas_oatmeal raisin_cookies.jpg,3,1.2720090106,..\..\JOCN-master\task a\images\starburst_favereds_candy.jpg,2.01124285333,6,6,2.48681260426,0,1
2,0.5,6,..\..\JOCN-master\task a\images\nutrigrain_strawberry_bar.jpg ..\..\JOCN-master\task a\images\grandmas_chocolate brownie_cookie.jpg ..\..\JOCN-master\task a\images\nature_valley_chewy.jpg ..\..\JOCN-master\task a\images\ritz_toasted_chips.jpg ..\..\JOCN-master\task a\images\quaker_chewy_chocolate chip.jpg ..\..\JOCN-master\task a\images\kettle_jalepeno.jpg,6,1.24991938644,..\..\JOCN-master\task a\images\kettle_jalepeno.jpg,2.61592870968,6,6,2.16877797403,0,1
5,0.75,3,..\..\JOCN-master\task a\images\planters_salted_cashews.jpg ..\..\JOCN-master\task a\images\fiber one_oats and choc_chewy bar.jpg ..\..\JOCN-master\task a\images\stonyfield_fruit snacks.jpg,3,1.74561496248,..\..\JOCN-master\task a\images\planters_salted_cashews.jpg,1.92858696333,5,6,1.82862615625,0,2
2,1.0,2,0.75 1.75 0.5 1.5 1.0 1.25,1.0,1.7184868968,$1.75,2.78131411798,7,7,3.40956782829,0,1
2,0.75,12,..\..\JOCN-master\task a\images\doritos_nacho cheesier_chips.jpg ..\..\JOCN-master\task a\images\ct_crunch_cereal_bar.jpg ..\..\JOCN-master\task a\images\nutrigrain_apple cinnamon_bar.jpg ..\..\JOCN-master\task a\images\wheat_thins.jpg ..\..\JOCN-master\task a\images\quakers_popped_rice_crisps.jpg ..\..\JOCN-master\task a\images\nabisco_oreo_mini.jpg ..\..\JOCN-master\task a\images\kitkat_crisp wafers_milk choc.jpg ..\..\JOCN-master\task a\images\lance_captain_wafers_with_honey_and_pb.JPG ..\..\JOCN-master\task a\images\austin_cheddar cheese_cheese cracker.jpg ..\..\JOCN-master\task a\images\nestle_babyruth_bar.jpg ..\..\JOCN-master\task a\images\keebler_chips delux_cookies_crackers.jpg ..\..\JOCN-master\task a\images\fiber one_oats and choc_chewy bar.jpg,12,1.4356650977,..\..\JOCN-master\task a\images\doritos_nacho cheesier_chips.jpg,2.69086684303,7,7,3.92074460494,0,1
4,0.5,3,..\..\JOCN-master\task a\images\nabisco_mini_ritz.jpg ..\..\JOCN-master\task a\images\lance_toasty_with_pb.jpg ..\..\JOCN-master\task a\images\homefree_chocolatechip_minicookies.jpg,3,5.6637218222e-06,..\..\JOCN-master\task a\images\lance_toasty_with_pb.jpg,1.54808221851e-05,n/a,n/a,,1,1
6,1.75,12,..\..\JOCN-master\task a\images\snickers_milk chocolate_candy bar.jpg ..\..\JOCN-master\task a\images\quakers_popped_rice_crisps.jpg ..\..\JOCN-master\task a\images\famous_amos_chocolate_chip.jpg ..\..\JOCN-master\task a\images\doritos_cool ranch_chips.jpg ..\..\JOCN-master\task a\images\twix_milk chocolate_cookie bars.jpg ..\..\JOCN-master\task a\images\belvita_banana_bread.jpg ..\..\JOCN-master\task a\images\kind_dark_chocolate.jpg ..\..\JOCN-master\task a\images\nabisco_teddy graham_honey.jpg ..\..\JOCN-master\task a\images\annie's_chocolate_chip_bunny_grahams.jpg ..\..\JOCN-master\task a\images\starburst_orignal_candy.jpg ..\..\JOCN-master\task a\images\garden_veggie straws_cheddar.jpg ..\..\JOCN-master\task a\images\planters_salted_cashews.jpg,12,2.41724291828,..\..\JOCN-master\task a\images\quakers_popped_rice_crisps.jpg,1.25368160402,5,5,1.83991620722,0,2
5,1.75,3,..\..\JOCN-master\task a\images\welch's_tropical_fruits.jpg ..\..\JOCN-master\task a\images\combos_cheddar cheese_pretzel.jpg ..\..\JOCN-master\task a\images\baked_ruffles_cheddar &sour.JPG,3,1.69467965647,..\..\JOCN-master\task a\images\baked_ruffles_cheddar &sour.JPG,1.59685444778,5,5,2.21085069767,0,2
5,1.25,6,..\..\JOCN-master\task a\images\baked_cheetos_crunchy.jpg ..\..\JOCN-master\task a\images\quaker_chewy_dark choc chunk.jpg ..\..\JOCN-master\task a\images\nabisco_oreo_mini.jpg ..\..\JOCN-master\task a\images\ritz_toasted_chips.jpg ..\..\JOCN-master\task a\images\3 musketeers_candy bar.jpg ..\..\JOCN-master\task a\images\jacklinks_beef_stick.jpg,6,1.29137400989,..\..\JOCN-master\task a\images\quaker_chewy_dark choc chunk.jpg,2.01095702448,4,4,1.96563295044,0,2
6,0.75,12,..\..\JOCN-master\task a\images\lance_van-o_cookies.jpg ..\..\JOCN-master\task a\images\famous_amos_chocolate_chip.jpg ..\..\JOCN-master\task a\images\keebler_chips delux_cookies_crackers.jpg ..\..\JOCN-master\task a\images\quaker_chewy_chocolate chip.jpg ..\..\JOCN-master\task a\images\annie's_cheddar_bunnies.jpg ..\..\JOCN-master\task a\images\lays_kc masterpiece_barbecue chips.jpg ..\..\JOCN-master\task a\images\garden_veggie straws_sea salt.jpg ..\..\JOCN-master\task a\images\baked_lays_sour cream and onion.jpg ..\..\JOCN-master\task a\images\nature valley_oats and honey_crunchy.jpg ..\..\JOCN-master\task a\images\keebler_cheese_and_peanut_butter.jpg ..\..\JOCN-master\task a\images\combos_cheddar cheese_pretzel.jpg ..\..\JOCN-master\task a\images\oreo_thin_crisps.jpg,12,1.6286720701,..\..\JOCN-master\task a\images\nature valley_oats and honey_crunchy.jpg,2.6976417798,6,7,1.72017657201,0,2
5,1.25,6,..\..\JOCN-master\task a\images\nature_valley_chewy.jpg ..\..\JOCN-master\task a\images\nabisco_teddy graham_honey.jpg ..\..\JOCN-master\task a\images\pringles_sour cream and onion_potato crisps.jpg ..\..\JOCN-master\task a\images\teddy_grahams_chocolate.jpg ..\..\JOCN-master\task a\images\lays_classic_potato chips.jpg ..\..\JOCN-master\task a\images\keebler_fudge_stripes.jpg,6,1.33288564808,..\..\JOCN-master\task a\images\nature_valley_chewy.jpg,2.84358138646,6,6,1.89746522289,0,2
7,0.75,2,..\..\JOCN-master\task a\images\keebler_chips delux_cookies_crackers.jpg ..\..\JOCN-master\task a\images\belvita_blueberry.JPG,2,6.41887891106e-06,..\..\JOCN-master\task a\images\keebler_chips delux_cookies_crackers.jpg,9.06194327399e-06,n/a,n/a,,1,2
1,1.25,2,..\..\JOCN-master\task a\images\sourpatch_watermelon_candy.jpg ..\..\JOCN-master\task a\images\barnum's_animal_crackers.jpg,2,1.52937844873,..\..\JOCN-master\task a\images\sourpatch_watermelon_candy.jpg,1.15895293753,6,7,2.2070881025,0,1
2,1.0,6,..\..\JOCN-master\task a\images\grandmas_oatmeal raisin_cookies.jpg ..\..\JOCN-master\task a\images\welch's_mixed fruit_fruit snacks.jpg ..\..\JOCN-master\task a\images\cheez itz_original.jpg ..\..\JOCN-master\task a\images\special_k_pastry_crisps_strawberry.jpg ..\..\JOCN-master\task a\images\hersey_milk_chocolate.jpg ..\..\JOCN-master\task a\images\nabisco_mini_ritz.jpg,6,1.2538930494,..\..\JOCN-master\task a\images\cheez itz_original.jpg,1.97022282568,7,7,3.68055321666,0,1
3,0.5,3,0.75 0.5,0.5,5.6637218222e-06,$0.75,3.39822145179e-06,n/a,n/a,,1,1
2,0.5,6,..\..\JOCN-master\task a\images\kitkat_crisp wafers_milk choc.jpg ..\..\JOCN-master\task a\images\nestle_crunch_bar.jpg ..\..\JOCN-master\task a\images\homefree_chocolatechip_minicookies.jpg ..\..\JOCN-master\task a\images\combos_cheddar cheese_pretzel.jpg ..\..\JOCN-master\task a\images\lance_captain_wafers_with_honey_and_pb.JPG ..\..\JOCN-master\task a\images\annie's_chocolate_bunny_grahams.jpg,6,0.886318275152,..\..\JOCN-master\task a\images\combos_cheddar cheese_pretzel.jpg,1.40352086777,7,7,2.21492895056,0,1
8,1.5,6,0.5 1.5 1.0 1.75,1.5,5.28614327777e-06,$1.75,3.3982360037e-06,n/a,n/a,,1,2
6,0.75,2,..\..\JOCN-master\task a\images\starburst_orignal_candy.jpg ..\..\JOCN-master\task a\images\special_k_pastry_crisps_blueberry.jpg,2,1.17319944814,..\..\JOCN-master\task a\images\special_k_pastry_crisps_blueberry.jpg,1.41012287242,6,5,3.78232037148,0,2
1,1.5,12,..\..\JOCN-master\task a\images\ct_crunch_cereal_bar.jpg ..\..\JOCN-master\task a\images\special_k_pastry_crisps_strawberry.jpg ..\..\JOCN-master\task a\images\homefree_vanilla_minicookies.jpg ..\..\JOCN-master\task a\images\haribo_gold_bears.jpg ..\..\JOCN-master\task a\images\keebler_fudge_stripes.jpg ..\..\JOCN-master\task a\images\reeses_peanut butter cups_milk choc.jpg ..\..\JOCN-master\task a\images\quakers_popped_rice_crisps.jpg ..\..\JOCN-master\task a\images\jacklinks_beef_stick.jpg ..\..\JOCN-master\task a\images\nuture valley_crunchy_bar.jpg ..\..\JOCN-master\task a\images\kar's_yogurt apple_nut mix.jpg ..\..\JOCN-master\task a\images\annie's_chocolate_bunny_grahams.jpg ..\..\JOCN-master\task a\images\hersey_milk_chocolate.jpg,12,1.76609495861,..\..\JOCN-master\task a\images\ct_crunch_cereal_bar.jpg,3.67317037439,6,7,2.93986832994,0,1
1,1.75,3,1.75 1.25,1.75,1.24987143365,$1.75,1.91527911923,6,6,3.02139449744,0,1
1,1.5,3,1.5 0.5 1.0 1.25,1.5,1.62113630751,$1.5,2.28170717985,6,6,3.23095197999,0,1
7,1.5,12,0.75 1.5,1.5,5.6637218222e-06,$0.75,3.39822145179e-06,n/a,n/a,,1,2
2,1.5,12,..\..\JOCN-master\task a\images\baked_cheetos_crunchy.jpg ..\..\JOCN-master\task a\images\planters_salted_cashews.jpg ..\..\JOCN-master\task a\images\snyders_mini_pretzels.jpg ..\..\JOCN-master\task a\images\baked_lays_barbeque.jpg ..\..\JOCN-master\task a\images\snickers_milk chocolate_candy bar.jpg ..\..\JOCN-master\task a\images\pepperidge farms-goldish-cheddar.jpg ..\..\JOCN-master\task a\images\garden_veggie straws_cheddar.jpg ..\..\JOCN-master\task a\images\ritz_toasted_chips.jpg ..\..\JOCN-master\task a\images\planters_salted_peanuts.jpg ..\..\JOCN-master\task a\images\nuture valley_crunchy_bar.jpg ..\..\JOCN-master\task a\images\welch's_mixed fruit_fruit snacks.jpg ..\..\JOCN-master\task a\images\pringles_cheddar_potato crisps.jpg,12,1.63901779086,..\..\JOCN-master\task a\images\baked_lays_barbeque.jpg,1.97522652974,6,6,2.3783094035,0,1
4,1.25,2,..\..\JOCN-master\task a\images\cheetos_crunchy_chips.jpg ..\..\JOCN-master\task a\images\basil_vanilla.jpg,2,6.79645745549e-06,..\..\JOCN-master\task a\images\basil_vanilla.jpg,8.68436472956e-06,n/a,n/a,,1,1
8,0.5,12,0.5 0.75 1.75,0.5,6.04130036663e-06,$1.75,3.3982360037e-06,n/a,n/a,,1,2
3,0.75,6,1.0 1.5 0.75,0.75,5.28612872586e-06,$1.0,3.39822145179e-06,n/a,n/a,,1,1
5,0.5,6,..\..\JOCN-master\task a\images\baked_cheetos_crunchy.jpg ..\..\JOCN-master\task a\images\kind bar_peanut butter_bar.jpg ..\..\JOCN-master\task a\images\kitkat_crisp wafers_milk choc.jpg ..\..\JOCN-master\task a\images\homefree_vanilla_minicookies.jpg ..\..\JOCN-master\task a\images\skittles_sour_candy.jpg ..\..\JOCN-master\task a\images\jacklinks_beef_jerky_original.jpg,6,1.42269632137,..\..\JOCN-master\task a\images\skittles_sour_candy.jpg,1.76536887026,7,6,2.73818152434,0,2
5,1.5,12,..\..\JOCN-master\task a\images\baked_lays_sour cream and onion.jpg ..\..\JOCN-master\task a\images\nestle_butterfinger_bar.jpg ..\..\JOCN-master\task a\images\kind_dark_chocolate.jpg ..\..\JOCN-master\task a\images\planters_salted_peanuts.jpg ..\..\JOCN-master\task a\images\garden_veggie straws_sea salt.jpg ..\..\JOCN-master\task a\images\pringles_the original_potato crisps.jpg ..\..\JOCN-master\task a\images\starburst_orignal_candy.jpg ..\..\JOCN-master\task a\images\annie's_cheddar_bunnies.jpg ..\..\JOCN-master\task a\images\nabisco_teddy graham_honey.jpg ..\..\JOCN-master\task a\images\sunchips_harvest cheddar_chips.jpg ..\..\JOCN-master\task a\images\chex mix_original_traditional.jpg ..\..\JOCN-master\task a\images\lance_toast_cheese_with_pb.JPG,12,1.55349681585,..\..\JOCN-master\task a\images\planters_salted_peanuts.jpg,1.45892409034,6,6,2.00467558614,0,2
5,0.5,2,..\..\JOCN-master\task a\images\nestle_butterfinger_bar.jpg ..\..\JOCN-master\task a\images\skittles_wild berry_candy.jpg,2,1.07378462324,..\..\JOCN-master\task a\images\skittles_wild berry_candy.jpg,1.53187954561,6,6,1.82579958451,0,2
3,1.25,12,1.25 1.75 0.5 0.75,1.25,7.17405055184e-06,$0.75,3.39822145179e-06,n/a,n/a,,1,1
8,0.75,2,..\..\JOCN-master\task a\images\nuture valley_crunchy_bar.jpg ..\..\JOCN-master\task a\images\sun chips_original_chips.jpg,2,6.04130036663e-06,..\..\JOCN-master\task a\images\nuture valley_crunchy_bar.jpg,9.43952181842e-06,n/a,n/a,,1,2
5,1.25,6,..\..\JOCN-master\task a\images\sun chips_original_chips.jpg ..\..\JOCN-master\task a\images\slim_jim.jpg ..\..\JOCN-master\task a\images\kitkat_crisp wafers_milk choc.jpg ..\..\JOCN-master\task a\images\kind_almond_butter.jpg ..\..\JOCN-master\task a\images\austin_peanut butter_cheese cracker.jpg ..\..\JOCN-master\task a\images\annie's_chocolate_chip_bunny_grahams.jpg,6,1.62656630059,..\..\JOCN-master\task a\images\austin_peanut butter_cheese cracker.jpg,1.90889346853,6,6,2.37481489089,0,2
1,0.5,2,..\..\JOCN-master\task a\images\chex mix_original_traditional.jpg ..\..\JOCN-master\task a\images\nestle_butterfinger_bar.jpg,2,1.29870965451,..\..\JOCN-master\task a\images\chex mix_original_traditional.jpg,0.958567653841,7,7,1.82117459422,0,1
6,1.5,6,..\..\JOCN-master\task a\images\garden_veggie straws_cheddar.jpg ..\..\JOCN-master\task a\images\grandmas_oatmeal raisin_cookies.jpg ..\..\JOCN-master\task a\images\slim_jim.jpg ..\..\JOCN-master\task a\images\quaker_chewy_dark choc chunk.jpg ..\..\JOCN-master\task a\images\kellogg's_rice krispies_orignal.jpg ..\..\JOCN-master\task a\images\nature_valley_chewy.jpg,6,2.09021506262,..\..\JOCN-master\task a\images\garden_veggie straws_cheddar.jpg,1.29823843337,6,6,2.12830015278,0,2
7,0.75,6,..\..\JOCN-master\task a\images\pirates booty_aged white cheddar_ corn puffs.jpg ..\..\JOCN-master\task a\images\pringles_cheddar_potato crisps.jpg ..\..\JOCN-master\task a\images\austin_peanut butter_cheese cracker.jpg ..\..\JOCN-master\task a\images\kettle_salt_pepper.jpg ..\..\JOCN-master\task a\images\nabisco_chips ahhoy_mini.jpg ..\..\JOCN-master\task a\images\planters_salted_cashews.jpg,6,7.92919308878e-06,..\..\JOCN-master\task a\images\pringles_cheddar_potato crisps.jpg,1.09498505481e-05,n/a,n/a,,1,2
2,1.25,12,..\..\JOCN-master\task a\images\combos_cheddar cheese_pretzel.jpg ..\..\JOCN-master\task a\images\haribo_gold_bears.jpg ..\..\JOCN-master\task a\images\cloverhill_cheese_danish.jpg ..\..\JOCN-master\task a\images\keebler_chips delux_cookies_crackers.jpg ..\..\JOCN-master\task a\images\nuture valley_crunchy_bar.jpg ..\..\JOCN-master\task a\images\jacklinks_beef_stick.jpg ..\..\JOCN-master\task a\images\ct_crunch_cereal_bar.jpg ..\..\JOCN-master\task a\images\annie's_cheddar_bunnies.jpg ..\..\JOCN-master\task a\images\grandmas_chocolate brownie_cookie.jpg ..\..\JOCN-master\task a\images\jacklinks_beef_jerky_original.jpg ..\..\JOCN-master\task a\images\planters_salted_peanuts.jpg ..\..\JOCN-master\task a\images\belvita_golden_oats.JPG,12,1.72988682386,..\..\JOCN-master\task a\images\combos_cheddar cheese_pretzel.jpg,2.62508618287,7,7,3.56420501442,0,1
5,0.5,12,..\..\JOCN-master\task a\images\planters_salted_peanuts.jpg ..\..\JOCN-master\task a\images\fig_newtons.jpg ..\..\JOCN-master\task a\images\famous_amos_chocolate_chip.jpg ..\..\JOCN-master\task a\images\fiber one_cinamon_coffee cake.jpg ..\..\JOCN-master\task a\images\twix_milk chocolate_cookie bars.jpg ..\..\JOCN-master\task a\images\snickers_milk chocolate_candy bar.jpg ..\..\JOCN-master\task a\images\nabisco_teddy graham_honey.jpg ..\..\JOCN-master\task a\images\homefree_chocolatechip_minicookies.jpg ..\..\JOCN-master\task a\images\skinny_pop_popcorn.jpg ..\..\JOCN-master\task a\images\belvita_blueberry.JPG ..\..\JOCN-master\task a\images\sun chips_french onion_chips.jpg ..\..\JOCN-master\task a\images\boulder_kettle_sea_salt.jpg,12,1.86796632582,..\..\JOCN-master\task a\images\twix_milk chocolate_cookie bars.jpg,1.14994574159,7,7,2.16985861101,0,2
5,0.75,12,..\..\JOCN-master\task a\images\annie's_chocolate_bunny_grahams.jpg ..\..\JOCN-master\task a\images\barnum's_animal_crackers.jpg ..\..\JOCN-master\task a\images\skinny_pop_popcorn.jpg ..\..\JOCN-master\task a\images\cloverhill_cheese_danish.jpg ..\..\JOCN-master\task a\images\nabisco_mini_ritz.jpg ..\..\JOCN-master\task a\images\famous_amos_chocolate_chip.jpg ..\..\JOCN-master\task a\images\pirates booty_aged white cheddar_ corn puffs.jpg ..\..\JOCN-master\task a\images\combos_cheddar cheese_pretzel.jpg ..\..\JOCN-master\task a\images\twix_milk chocolate_cookie bars.jpg ..\..\JOCN-master\task a\images\3 musketeers_candy bar.jpg ..\..\JOCN-master\task a\images\grandmas_oatmeal raisin_cookies.jpg ..\..\JOCN-master\task a\images\m&m's_milk_chocholate.jpg,12,1.39621542963,..\..\JOCN-master\task a\images\grandmas_oatmeal raisin_cookies.jpg,2.63724504784,6,4,2.6609922528,0,2
8,1.5,12,1.5 1.25 0.75 0.5 1.0 1.75,1.5,6.04130036663e-06,$1.75,3.3982360037e-06,n/a,n/a,,1,2
7,1.5,6,1.75 0.75 1.5 1.0 0.5 1.25,1.5,5.6637218222e-06,$1.75,3.77579999622e-06,n/a,n/a,,1,2
7,1.75,2,1.5 1.75,1.75,6.04128581472e-06,$1.5,6.41887891106e-06,n/a,n/a,,1,2
1,1.25,2,..\..\JOCN-master\task a\images\nuture valley_crunchy_bar.jpg ..\..\JOCN-master\task a\images\austin_peanut_butter.jpg,2,2.45121917145,..\..\JOCN-master\task a\images\austin_peanut_butter.jpg,1.40539442495,6,6,3.29006304848,0,1
7,1.5,12,1.5 1.0 1.25 0.5,1.5,5.6637218222e-06,$0.5,4.90856473334e-06,n/a,n/a,,1,2
2,0.5,3,..\..\JOCN-master\task a\images\keebler_cheese_and_peanut_butter.jpg ..\..\JOCN-master\task a\images\welch's_mixed fruit_fruit snacks.jpg ..\..\JOCN-master\task a\images\sun chips_french onion_chips.jpg,3,1.50402803463,..\..\JOCN-master\task a\images\sun chips_french onion_chips.jpg,1.51785882849,6,6,1.92207973152,0,1
6,1.75,12,..\..\JOCN-master\task a\images\skittles_darkside_candy.jpg ..\..\JOCN-master\task a\images\kellogg's_rice krispies_orignal.jpg ..\..\JOCN-master\task a\images\garden_veggie straws_sea salt.jpg ..\..\JOCN-master\task a\images\kettle_jalepeno.jpg ..\..\JOCN-master\task a\images\pringles_the original_potato crisps.jpg ..\..\JOCN-master\task a\images\starburst_favereds_candy.jpg ..\..\JOCN-master\task a\images\emerald_natural_almonds.jpg ..\..\JOCN-master\task a\images\grandma's_peanut butter_cookies.jpg ..\..\JOCN-master\task a\images\kar's_yogurt apple_nut mix.jpg ..\..\JOCN-master\task a\images\lance_captain_wafers_with_honey_and_pb.JPG ..\..\JOCN-master\task a\images\cheez-it_white_cheddar.JPG ..\..\JOCN-master\task a\images\milkyway_orginal_candy.jpg,12,1.83105966612,..\..\JOCN-master\task a\images\milkyway_orginal_candy.jpg,2.17521384303,5,5,2.57135639951,0,2
1,0.5,2,..\..\JOCN-master\task a\images\starburst_orignal_candy.jpg ..\..\JOCN-master\task a\images\nabisco_ritz bits_cookies.jpg,2,1.52408740549,..\..\JOCN-master\task a\images\nabisco_ritz bits_cookies.jpg,1.13127926725,7,7,2.08685723435,0,1
5,1.0,3,..\..\JOCN-master\task a\images\starburst_verry berry_candy.jpg ..\..\JOCN-master\task a\images\fiber one_chocolate fudge_ brownie.jpg ..\..\JOCN-master\task a\images\lance_captain_wafers_with_honey_and_pb.JPG,3,1.44097653033,..\..\JOCN-master\task a\images\lance_captain_wafers_with_honey_and_pb.JPG,2.59006667326,6,6,2.64785016677,0,2
6,1.75,2,..\..\JOCN-master\task a\images\hersheys_milk choc_almond.jpg ..\..\JOCN-master\task a\images\basil_vanilla.jpg,2,0.956408645405,..\..\JOCN-master\task a\images\basil_vanilla.jpg,1.21869720945,5,5,1.51713576078,0,2
1,1.75,2,..\..\JOCN-master\task a\images\jacklinks_beef_stick.jpg ..\..\JOCN-master\task a\images\nutrigrain_blueberry_bar.jpg,2,1.01674609713,..\..\JOCN-master\task a\images\jacklinks_beef_stick.jpg,1.82483562008,3,4,1.6640366888,0,1
6,1.25,2,..\..\JOCN-master\task a\images\oreo_thin_crisps.jpg ..\..\JOCN-master\task a\images\lance_toasty_with_pb.jpg,2,1.19050172216,..\..\JOCN-master\task a\images\oreo_thin_crisps.jpg,1.16848648146,5,5,2.16523399831,0,2
6,1.0,3,..\..\JOCN-master\task a\images\baked_lays_barbeque.jpg ..\..\JOCN-master\task a\images\skittles_wild berry_candy.jpg ..\..\JOCN-master\task a\images\kettle_salt_vinegar.jpg,3,1.24116177158,..\..\JOCN-master\task a\images\skittles_wild berry_candy.jpg,0.956644255974,5,5,2.09063153452,0,2
2,1.25,2,..\..\JOCN-master\task a\images\keebler_chips_deluxe.jpg ..\..\JOCN-master\task a\images\baked_lays_classic.jpg,2,0.909218943387,..\..\JOCN-master\task a\images\baked_lays_classic.jpg,1.14977469739,7,6,1.70396475206,0,1
2,0.5,2,..\..\JOCN-master\task a\images\snickers_milk chocolate_candy bar.jpg ..\..\JOCN-master\task a\images\baked_lays_barbeque.jpg,2,0.882296659402,..\..\JOCN-master\task a\images\baked_lays_barbeque.jpg,0.83678303966,6,7,1.70504727692,0,1
5,0.75,3,..\..\JOCN-master\task a\images\austin_vanilla creme_vanilla cookies.jpg ..\..\JOCN-master\task a\images\nutrigrain_apple cinnamon_bar.jpg ..\..\JOCN-master\task a\images\austin_cheddar cheese_cheese cracker.jpg,3,0.767348905269,..\..\JOCN-master\task a\images\austin_cheddar cheese_cheese cracker.jpg,1.06871370974,6,6,2.31439474892,0,2
1,0.75,3,..\..\JOCN-master\task a\images\lance_van-o_cookies.jpg ..\..\JOCN-master\task a\images\special_k_pastry_crisps_blueberry.jpg ..\..\JOCN-master\task a\images\haribo_gold_bears.jpg,3,1.26568377284,..\..\JOCN-master\task a\images\lance_van-o_cookies.jpg,2.9503896259,5,5,1.94550674775,0,1
7,1.75,6,..\..\JOCN-master\task a\images\fiber one_oats and choc_chewy bar.jpg ..\..\JOCN-master\task a\images\nestle_babyruth_bar.jpg ..\..\JOCN-master\task a\images\homefree_vanilla_minicookies.jpg ..\..\JOCN-master\task a\images\jacklinks_beef_jerky_original.jpg ..\..\JOCN-master\task a\images\famous_amos_chocolate_chip.jpg ..\..\JOCN-master\task a\images\homefree_chocolatechip_minicookies.jpg,6,5.66370727029e-06,..\..\JOCN-master\task a\images\homefree_vanilla_minicookies.jpg,1.62359938258e-05,n/a,n/a,,1,2
1,0.75,12,..\..\JOCN-master\task a\images\starburst_orignal_candy.jpg ..\..\JOCN-master\task a\images\planters_salted_cashews.jpg ..\..\JOCN-master\task a\images\basil_vanilla.jpg ..\..\JOCN-master\task a\images\mini_cheese_nips.jpg ..\..\JOCN-master\task a\images\kar's_yogurt apple_nut mix.jpg ..\..\JOCN-master\task a\images\nutrigrain_strawberry_bar.jpg ..\..\JOCN-master\task a\images\garden_veggie straws_sea salt.jpg ..\..\JOCN-master\task a\images\barnum's_animal_crackers.jpg ..\..\JOCN-master\task a\images\lays_classic_potato chips.jpg ..\..\JOCN-master\task a\images\mini_fudge_stripes.jpg ..\..\JOCN-master\task a\images\fiber one_cinamon_coffee cake.jpg ..\..\JOCN-master\task a\images\garden_veggie straws_cheddar.jpg,12,1.92059017428,..\..\JOCN-master\task a\images\lays_classic_potato chips.jpg,1.35029628784,7,7,4.34804250656,0,1
