Trial Type, Money Option, Item Option, Trial Options, Choice 1, Choice 1 RT, Choice 2, Choice 2 RT, Decision Rating , Selected Option Rating, PostChoiceRT, Computer Response, Choosing For
6,1.75,3,0.75 1.75 0.5 1.5,1.75,4.39528182097,$1.75,4.16794924706,7,3,n/a,1,2
8,1.75,12,..\..\JOCN-master\task a\images\baked_cheetos_crunchy.jpg ..\..\JOCN-master\task a\images\starburst_orignal_candy.jpg ..\..\JOCN-master\task a\images\pringles_cheddar_potato crisps.jpg ..\..\JOCN-master\task a\images\sourpatchkids_original_candy.jpg ..\..\JOCN-master\task a\images\hersey_milk_chocolate.jpg ..\..\JOCN-master\task a\images\pirates booty_aged white cheddar_ corn puffs.jpg ..\..\JOCN-master\task a\images\nestle_babyruth_bar.jpg ..\..\JOCN-master\task a\images\lance_toasty_with_pb.jpg ..\..\JOCN-master\task a\images\baked_lays_barbeque.jpg ..\..\JOCN-master\task a\images\baked_ruffles_cheddar &sour.JPG ..\..\JOCN-master\task a\images\nature_valley_sweet_and_salty.jpg ..\..\JOCN-master\task a\images\baked_lays_classic.jpg,12,6.41890801489e-06,..\..\JOCN-master\task a\images\baked_cheetos_crunchy.jpg,1.32152927108e-05,n/a,n/a,,1,2
2,1.75,6,..\..\JOCN-master\task a\images\baked_cheetos_crunchy.jpg ..\..\JOCN-master\task a\images\austin_peanut_butter.jpg ..\..\JOCN-master\task a\images\nabisco_ritz bits_cookies.jpg ..\..\JOCN-master\task a\images\fiber one_oats and choc_chewy bar.jpg ..\..\JOCN-master\task a\images\nabisco_chips ahhoy_mini.jpg ..\..\JOCN-master\task a\images\nutrigrain_blueberry_bar.jpg,6,2.11540278286,..\..\JOCN-master\task a\images\nabisco_chips ahhoy_mini.jpg,3.44755189569,6,7,n/a,1,1
3,1.5,2,1.25 1.5,1.5,7.55162909627e-06,$1.25,4.15340764448e-06,n/a,n/a,,1,1
8,1.75,12,..\..\JOCN-master\task a\images\kettle_original.jpg ..\..\JOCN-master\task a\images\welch's_berry.jpg ..\..\JOCN-master\task a\images\starburst_orignal_candy.jpg ..\..\JOCN-master\task a\images\barnum's_animal_crackers.jpg ..\..\JOCN-master\task a\images\skinny_pop_popcorn.jpg ..\..\JOCN-master\task a\images\jacklinks_beef_jerky_original.jpg ..\..\JOCN-master\task a\images\belvita_banana_bread.jpg ..\..\JOCN-master\task a\images\nestle_babyruth_bar.jpg ..\..\JOCN-master\task a\images\emerald_cashews.jpg ..\..\JOCN-master\task a\images\nabisco_mini_ritz.jpg ..\..\JOCN-master\task a\images\nabisco_oreo_mini.jpg ..\..\JOCN-master\task a\images\cheez itz_original.jpg,12,5.6637218222e-06,..\..\JOCN-master\task a\images\emerald_cashews.jpg,1.24601647258e-05,n/a,n/a,,1,2
3,1.0,12,..\..\JOCN-master\task a\images\welch's_berry.jpg ..\..\JOCN-master\task a\images\belvita_banana_bread.jpg ..\..\JOCN-master\task a\images\chips_ahoy_thin_crisps.jpg ..\..\JOCN-master\task a\images\emerald_cashews.jpg ..\..\JOCN-master\task a\images\pringles_sour cream and onion_potato crisps.jpg ..\..\JOCN-master\task a\images\poptarts_strawberry_frosted.jpg ..\..\JOCN-master\task a\images\m&m's_peanut_butter.jpg ..\..\JOCN-master\task a\images\pepperidge farms-goldish-cheddar.jpg ..\..\JOCN-master\task a\images\cheez-it_white_cheddar.JPG ..\..\JOCN-master\task a\images\sourpatchkids_original_candy.jpg ..\..\JOCN-master\task a\images\keebler_chips_deluxe.jpg ..\..\JOCN-master\task a\images\snickers_almond_bar.jpg,12,5.6637218222e-06,..\..\JOCN-master\task a\images\m&m's_peanut_butter.jpg,9.06194327399e-06,n/a,n/a,,1,1
5,1.0,3,..\..\JOCN-master\task a\images\quaker_chewy_chocolate chip.jpg ..\..\JOCN-master\task a\images\belvita_golden_oats.JPG ..\..\JOCN-master\task a\images\sunchips_harvest cheddar_chips.jpg,3,2.61282333697,..\..\JOCN-master\task a\images\sunchips_harvest cheddar_chips.jpg,2.05735911406,6,7,n/a,1,2
5,1.0,12,..\..\JOCN-master\task a\images\sourpatchkids_original_candy.jpg ..\..\JOCN-master\task a\images\belvita_golden_oats.JPG ..\..\JOCN-master\task a\images\boulder_kettle_olive_oil.jpg ..\..\JOCN-master\task a\images\lance_van-o_cookies.jpg ..\..\JOCN-master\task a\images\snyders_mini_pretzels.jpg ..\..\JOCN-master\task a\images\starburst_orignal_candy.jpg ..\..\JOCN-master\task a\images\jacklinks_beef_stick.jpg ..\..\JOCN-master\task a\images\quaker_chewy_peanut butter choc chip.jpg ..\..\JOCN-master\task a\images\swedish fish_original_candy.jpg ..\..\JOCN-master\task a\images\planters_salted_peanuts.jpg ..\..\JOCN-master\task a\images\sun chips_french onion_chips.jpg ..\..\JOCN-master\task a\images\special_k_cracker_chips.jpg,12,2.09195876663,..\..\JOCN-master\task a\images\swedish fish_original_candy.jpg,n/a,1,7,n/a,1,2
2,1.25,3,1.25 1.75,1.25,2.2497703362,$1.75,1.78228932765,3,6,3.77893149806,0,1
4,1.25,12,..\..\JOCN-master\task a\images\kettle_original.jpg ..\..\JOCN-master\task a\images\belvita_blueberry.JPG ..\..\JOCN-master\task a\images\wheat_thins.jpg ..\..\JOCN-master\task a\images\keebler_fudge_stripes.jpg ..\..\JOCN-master\task a\images\lance_choc-o_cookies.jpg ..\..\JOCN-master\task a\images\fiber one_oats and choc_chewy bar.jpg ..\..\JOCN-master\task a\images\m&m's_peanut.jpg ..\..\JOCN-master\task a\images\special_k_pastry_crisps_blueberry.jpg ..\..\JOCN-master\task a\images\lance_toast_cheese_with_pb.JPG ..\..\JOCN-master\task a\images\austin_cheddar cheese_cheese cracker.jpg ..\..\JOCN-master\task a\images\lays_kc masterpiece_barbecue chips.jpg ..\..\JOCN-master\task a\images\skittles_wild berry_candy.jpg,12,6.41884980723e-06,..\..\JOCN-master\task a\images\lays_kc masterpiece_barbecue chips.jpg,9.43953637034e-06,n/a,n/a,,1,1
8,1.5,3,0.75 1.5,1.5,6.04125671089e-06,$1.5,4.15340764448e-06,n/a,n/a,,1,2
6,0.75,2,1.0 1.5 1.75 0.75,0.75,1.84108513815,$1.75,1.44906373083,7,5,3.55339960888,0,2
4,0.75,6,0.5 1.75 0.75,0.75,6.04125671089e-06,$0.5,3.77581454813e-06,n/a,n/a,,1,1
3,1.75,2,..\..\JOCN-master\task a\images\austin_peanut_butter.jpg ..\..\JOCN-master\task a\images\austin_cheddar cheese_cheese cracker.jpg,2,5.6637218222e-06,..\..\JOCN-master\task a\images\austin_cheddar cheese_cheese cracker.jpg,9.06194327399e-06,n/a,n/a,,1,1
6,0.75,6,1.5 0.5 0.75 1.75 1.25 1.0,0.75,2.32848242187,$1.75,2.08214769693,4,6,2.9517277549,0,2
4,0.75,2,..\..\JOCN-master\task a\images\pringles_the original_potato crisps.jpg ..\..\JOCN-master\task a\images\welch's_mixed fruit_fruit snacks.jpg,2,6.04131491855e-06,..\..\JOCN-master\task a\images\pringles_the original_potato crisps.jpg,1.28377578221e-05,n/a,n/a,,1,1
6,1.25,6,..\..\JOCN-master\task a\images\emerald_cashews.jpg ..\..\JOCN-master\task a\images\3 musketeers_candy bar.jpg ..\..\JOCN-master\task a\images\boulder_kettle_sea_salt.jpg ..\..\JOCN-master\task a\images\wheat_thins.jpg ..\..\JOCN-master\task a\images\m&m's_peanut_butter.jpg ..\..\JOCN-master\task a\images\barnum's_animal_crackers.jpg,6,2.89114183199,..\..\JOCN-master\task a\images\boulder_kettle_sea_salt.jpg,3.15962018352,6,7,3.53336930426,0,2
5,1.5,6,..\..\JOCN-master\task a\images\pringles_the original_potato crisps.jpg ..\..\JOCN-master\task a\images\quakers_popped_rice_crisps.jpg ..\..\JOCN-master\task a\images\baked_ruffles_cheddar &sour.JPG ..\..\JOCN-master\task a\images\lance_toast_cheese_with_pb.JPG ..\..\JOCN-master\task a\images\skinny_pop_popcorn.jpg ..\..\JOCN-master\task a\images\pirates booty_aged white cheddar_ corn puffs.jpg,6,1.79198032652,..\..\JOCN-master\task a\images\skinny_pop_popcorn.jpg,3.55850941513,7,7,3.23983428715,0,2
1,0.75,3,..\..\JOCN-master\task a\images\3 musketeers_candy bar.jpg ..\..\JOCN-master\task a\images\nabisco_ritz bits_cookies.jpg ..\..\JOCN-master\task a\images\nutrigrain_blueberry_bar.jpg,3,1.33719963889,..\..\JOCN-master\task a\images\3 musketeers_candy bar.jpg,2.41334190691,6,5,3.64371740771,0,1
1,1.0,2,..\..\JOCN-master\task a\images\grandmas_chocolate chip_cookies.jpg ..\..\JOCN-master\task a\images\kettle_salt_vinegar.jpg,2,1.3167913754,..\..\JOCN-master\task a\images\kettle_salt_vinegar.jpg,1.60614656872,5,6,3.35654199059,0,1
3,0.75,3,..\..\JOCN-master\task a\images\doritos_nacho cheesier_chips.jpg ..\..\JOCN-master\task a\images\cheetos_crunchy_chips.jpg ..\..\JOCN-master\task a\images\poptarts_brown_sugar.jpg,3,6.41884980723e-06,..\..\JOCN-master\task a\images\poptarts_brown_sugar.jpg,8.68440838531e-06,n/a,n/a,,1,1
8,1.75,12,..\..\JOCN-master\task a\images\kettle_salt_pepper.jpg ..\..\JOCN-master\task a\images\skittles_original_candy.jpg ..\..\JOCN-master\task a\images\pringles_the original_potato crisps.jpg ..\..\JOCN-master\task a\images\keebler_chips_deluxe.jpg ..\..\JOCN-master\task a\images\kitkat_crisp wafers_milk choc.jpg ..\..\JOCN-master\task a\images\keebler_cheese_and_peanut_butter.jpg ..\..\JOCN-master\task a\images\sun chips_french onion_chips.jpg ..\..\JOCN-master\task a\images\fritos_original_corn chips.jpg ..\..\JOCN-master\task a\images\austin_peanut_butter.jpg ..\..\JOCN-master\task a\images\grandmas_chocolate chip_cookies.jpg ..\..\JOCN-master\task a\images\jacklinks_beef_jerky_original.jpg ..\..\JOCN-master\task a\images\cheez-it_white_cheddar.JPG,12,6.41890801489e-06,..\..\JOCN-master\task a\images\kettle_salt_pepper.jpg,9.81707125902e-06,n/a,n/a,,1,2
2,1.25,12,..\..\JOCN-master\task a\images\baked_cheetos_crunchy.jpg ..\..\JOCN-master\task a\images\cheez-it_white_cheddar.JPG ..\..\JOCN-master\task a\images\slim_jim.jpg ..\..\JOCN-master\task a\images\pepperidge farms-goldish-cheddar.jpg ..\..\JOCN-master\task a\images\skittles_wild berry_candy.jpg ..\..\JOCN-master\task a\images\mini_fudge_stripes.jpg ..\..\JOCN-master\task a\images\doritos_cool ranch_chips.jpg ..\..\JOCN-master\task a\images\welch's_mixed fruit_fruit snacks.jpg ..\..\JOCN-master\task a\images\cheetos_crunchy_chips.jpg ..\..\JOCN-master\task a\images\m&m's_milk_chocholate.jpg ..\..\JOCN-master\task a\images\belvita_blueberry.JPG ..\..\JOCN-master\task a\images\fritos_original_corn chips.jpg,12,2.96510281344,..\..\JOCN-master\task a\images\doritos_cool ranch_chips.jpg,2.62654350471,4,6,3.87666046049,0,1
8,0.5,12,..\..\JOCN-master\task a\images\special_k_pastry_crisps_strawberry.jpg ..\..\JOCN-master\task a\images\nestle_butterfinger_bar.jpg ..\..\JOCN-master\task a\images\lance_van-o_cookies.jpg ..\..\JOCN-master\task a\images\pringles_the original_potato crisps.jpg ..\..\JOCN-master\task a\images\nature valley_oats and honey_crunchy.jpg ..\..\JOCN-master\task a\images\nabisco_ritz bits_cookies.jpg ..\..\JOCN-master\task a\images\sourpatchkids_original_candy.jpg ..\..\JOCN-master\task a\images\nutrigrain_strawberry_bar.jpg ..\..\JOCN-master\task a\images\lance_toasty_with_pb.jpg ..\..\JOCN-master\task a\images\fiber one_chocolate fudge_ brownie.jpg ..\..\JOCN-master\task a\images\3 musketeers_candy bar.jpg ..\..\JOCN-master\task a\images\pirates booty_aged white cheddar_ corn puffs.jpg,12,6.04125671089e-06,..\..\JOCN-master\task a\images\3 musketeers_candy bar.jpg,1.20825716294e-05,n/a,n/a,,1,2
6,0.5,12,0.5 1.25 1.0,0.5,1.8612725166,0.5,n/a,7,5,n/a,1,2
4,1.75,3,..\..\JOCN-master\task a\images\quaker_chewy_chocolate chip.jpg ..\..\JOCN-master\task a\images\pringles_sour cream and onion_potato crisps.jpg ..\..\JOCN-master\task a\images\nabisco_oreo_mini.jpg,3,6.04131491855e-06,..\..\JOCN-master\task a\images\nabisco_oreo_mini.jpg,1.32153509185e-05,n/a,n/a,,1,1
5,1.0,6,..\..\JOCN-master\task a\images\starburst_orignal_candy.jpg ..\..\JOCN-master\task a\images\kettle_salt_pepper.jpg ..\..\JOCN-master\task a\images\austin_cheddar cheese_cheese cracker.jpg ..\..\JOCN-master\task a\images\garden_veggie straws_cheddar.jpg ..\..\JOCN-master\task a\images\popchips_sea_salt.jpg ..\..\JOCN-master\task a\images\pepperidge farms-goldish-cheddar.jpg,6,1.60174434958,..\..\JOCN-master\task a\images\kettle_salt_pepper.jpg,1.56624831929,5,7,3.33286236372,0,2
2,1.75,6,1.25 1.75,1.75,2.35350472748,$1.75,0.866056847852,6,7,2.72363171185,0,1
3,1.0,12,1.0 1.75 1.5,1.0,6.41884980723e-06,$1.5,4.15340764448e-06,n/a,n/a,,1,1
2,1.5,3,..\..\JOCN-master\task a\images\chex mix_original_traditional.jpg ..\..\JOCN-master\task a\images\nabisco_ritz bits_cookies.jpg ..\..\JOCN-master\task a\images\belvita_banana_bread.jpg,3,1.63154116936,..\..\JOCN-master\task a\images\chex mix_original_traditional.jpg,2.58566014597,5,4,3.61642772704,0,1
2,0.5,12,..\..\JOCN-master\task a\images\grandmas_chocolate chip_cookies.jpg ..\..\JOCN-master\task a\images\keebler_cheese_and_peanut_butter.jpg ..\..\JOCN-master\task a\images\milkyway_orginal_candy.jpg ..\..\JOCN-master\task a\images\doritos_cool ranch_chips.jpg ..\..\JOCN-master\task a\images\belvita_blueberry.JPG ..\..\JOCN-master\task a\images\skittles_sour_candy.jpg ..\..\JOCN-master\task a\images\lance_toast_cheese_with_pb.JPG ..\..\JOCN-master\task a\images\nestle_crunch_bar.jpg ..\..\JOCN-master\task a\images\welch's_mixed fruit_fruit snacks.jpg ..\..\JOCN-master\task a\images\doritos_nacho cheesier_chips.jpg ..\..\JOCN-master\task a\images\ritz_toasted_chips.jpg ..\..\JOCN-master\task a\images\austin_peanut_butter.jpg,12,1.92304064624,..\..\JOCN-master\task a\images\milkyway_orginal_candy.jpg,n/a,1,6,n/a,1,1
3,0.5,3,..\..\JOCN-master\task a\images\quakers_popped_rice_crisps.jpg ..\..\JOCN-master\task a\images\lays_kc masterpiece_barbecue chips.jpg ..\..\JOCN-master\task a\images\snickers_milk chocolate_candy bar.jpg,3,6.04125671089e-06,..\..\JOCN-master\task a\images\quakers_popped_rice_crisps.jpg,9.06194327399e-06,n/a,n/a,,1,1
1,1.25,3,..\..\JOCN-master\task a\images\jacklinks_beef_stick.jpg ..\..\JOCN-master\task a\images\garden_veggie straws_sea salt.jpg ..\..\JOCN-master\task a\images\cheez itz_original.jpg,3,1.2903546507,..\..\JOCN-master\task a\images\jacklinks_beef_stick.jpg,2.26719268761,6,7,3.72487810737,0,1
2,1.5,3,0.5 1.5 1.0 1.25 0.75 1.75,1.5,1.60393167747,$1.75,2.11478241696,7,7,3.00639622542,0,1
1,1.5,3,0.75 1.5 1.75,1.5,1.97148469079,$1.75,0.98267959553,3,6,4.46227378643,0,1
1,1.0,12,..\..\JOCN-master\task a\images\nutrigrain_blueberry_bar.jpg ..\..\JOCN-master\task a\images\quaker_chewy_peanut butter choc chip.jpg ..\..\JOCN-master\task a\images\mini_fudge_stripes.jpg ..\..\JOCN-master\task a\images\starburst_orignal_candy.jpg ..\..\JOCN-master\task a\images\pepperidge farms-goldish-cheddar.jpg ..\..\JOCN-master\task a\images\sourpatch_watermelon_candy.jpg ..\..\JOCN-master\task a\images\quaker_chewy_dark choc chunk.jpg ..\..\JOCN-master\task a\images\haribo_gold_bears.jpg ..\..\JOCN-master\task a\images\lays_classic_potato chips.jpg ..\..\JOCN-master\task a\images\nestle_crunch_bar.jpg ..\..\JOCN-master\task a\images\kettle_salt_pepper.jpg ..\..\JOCN-master\task a\images\garden_veggie straws_sea salt.jpg,12,3.92267061665,..\..\JOCN-master\task a\images\kettle_salt_pepper.jpg,1.69066245487,7,7,3.48998786835,0,1
3,0.75,2,0.75 0.5 1.25 1.5 1.75 1.0,0.75,6.04131491855e-06,$0.75,4.15340764448e-06,n/a,n/a,,1,1
1,1.0,12,..\..\JOCN-master\task a\images\hersheys_milk choc_almond.jpg ..\..\JOCN-master\task a\images\cheez-it_white_cheddar.JPG ..\..\JOCN-master\task a\images\quaker_chewy_peanut butter choc chip.jpg ..\..\JOCN-master\task a\images\swedish fish_original_candy.jpg ..\..\JOCN-master\task a\images\mini_fudge_stripes.jpg ..\..\JOCN-master\task a\images\special_k_pastry_crisps_blueberry.jpg ..\..\JOCN-master\task a\images\kitkat_crisp wafers_milk choc.jpg ..\..\JOCN-master\task a\images\nabisco_oreo_mini.jpg ..\..\JOCN-master\task a\images\m&m's_peanut_butter.jpg ..\..\JOCN-master\task a\images\snyders_mini_pretzels.jpg ..\..\JOCN-master\task a\images\skittles_sour_candy.jpg ..\..\JOCN-master\task a\images\quaker_chewy_chocolate chip.jpg,12,1.99258317263,..\..\JOCN-master\task a\images\m&m's_peanut_butter.jpg,3.27154770907,2,3,3.9964454507,0,1
7,0.75,3,..\..\JOCN-master\task a\images\baked_cheetos_crunchy.jpg ..\..\JOCN-master\task a\images\barnum's_animal_crackers.jpg ..\..\JOCN-master\task a\images\wheat_thins.jpg,3,6.41884980723e-06,..\..\JOCN-master\task a\images\barnum's_animal_crackers.jpg,9.43947816268e-06,n/a,n/a,,1,2
8,1.5,2,1.25 1.5,1.5,5.6637218222e-06,$1.5,3.77581454813e-06,n/a,n/a,,1,2
1,1.25,6,..\..\JOCN-master\task a\images\m&m's_peanut.jpg ..\..\JOCN-master\task a\images\nabisco_oreo_mini.jpg ..\..\JOCN-master\task a\images\hersheys_milk choc_almond.jpg ..\..\JOCN-master\task a\images\welch's_mixed fruit_fruit snacks.jpg ..\..\JOCN-master\task a\images\jacklinks_beef_stick.jpg ..\..\JOCN-master\task a\images\slim_jim.jpg,6,1.1315232343,..\..\JOCN-master\task a\images\hersheys_milk choc_almond.jpg,2.29338247428,5,6,3.78570719255,0,1
8,1.25,12,..\..\JOCN-master\task a\images\reeses_peanut butter cups_milk choc.jpg ..\..\JOCN-master\task a\images\quaker_chewy_peanut butter choc chip.jpg ..\..\JOCN-master\task a\images\pirates booty_aged white cheddar_ corn puffs.jpg ..\..\JOCN-master\task a\images\poptarts_strawberry_frosted.jpg ..\..\JOCN-master\task a\images\cheetos_crunchy_chips.jpg ..\..\JOCN-master\task a\images\teddy_grahams_chocolate.jpg ..\..\JOCN-master\task a\images\skittles_original_candy.jpg ..\..\JOCN-master\task a\images\belvita_banana_bread.jpg ..\..\JOCN-master\task a\images\popchips_sea_salt.jpg ..\..\JOCN-master\task a\images\nabisco_mini_ritz.jpg ..\..\JOCN-master\task a\images\planters_honey roasted_peanuts.jpg ..\..\JOCN-master\task a\images\welch's_mixed fruit_fruit snacks.jpg,12,5.6637218222e-06,..\..\JOCN-master\task a\images\cheetos_crunchy_chips.jpg,9.43953637034e-06,n/a,n/a,,1,2
5,1.0,3,..\..\JOCN-master\task a\images\boulder_kettle_sea_salt.jpg ..\..\JOCN-master\task a\images\sun chips_original_chips.jpg ..\..\JOCN-master\task a\images\pringles_sour cream and onion_potato crisps.jpg,3,1.8053229131,..\..\JOCN-master\task a\images\pringles_sour cream and onion_potato crisps.jpg,2.74777500844,4,3,n/a,1,2
6,0.75,2,1.75 1.5 0.75,0.75,2.26426983159,$1.75,0.916270615417,6,6,n/a,1,2
5,0.5,3,..\..\JOCN-master\task a\images\skittles_sour_candy.jpg ..\..\JOCN-master\task a\images\m&m's_peanut_butter.jpg ..\..\JOCN-master\task a\images\belvita_blueberry.JPG,3,1.20013955398,..\..\JOCN-master\task a\images\skittles_sour_candy.jpg,1.21228558576,6,7,2.88016592432,0,2
2,1.75,6,1.5 1.75,1.75,2.33663288952,$1.75,1.3160830331,6,6,3.4025019285,0,1
2,0.5,12,..\..\JOCN-master\task a\images\nuture valley_crunchy_bar.jpg ..\..\JOCN-master\task a\images\nabisco_teddy graham_honey.jpg ..\..\JOCN-master\task a\images\belvita_banana_bread.jpg ..\..\JOCN-master\task a\images\baked_lays_classic.jpg ..\..\JOCN-master\task a\images\welch's_white_grape_raspberry.jpg ..\..\JOCN-master\task a\images\kellogg's_rice krispies_orignal.jpg ..\..\JOCN-master\task a\images\fig_newtons.jpg ..\..\JOCN-master\task a\images\haribo_gold_bears.jpg ..\..\JOCN-master\task a\images\boulder_kettle_sea_salt.jpg ..\..\JOCN-master\task a\images\starburst_orignal_candy.jpg ..\..\JOCN-master\task a\images\special_k_cracker_chips.jpg ..\..\JOCN-master\task a\images\quaker_chewy_dark choc chunk.jpg,12,2.20971576823,..\..\JOCN-master\task a\images\welch's_white_grape_raspberry.jpg,3.3431491857,5,4,4.07597273408,0,1
6,1.0,6,0.75 1.75 1.25 0.5 1.0 1.5,1.0,1.79296996683,$1.75,1.03251578199,6,7,3.45447635715,0,2
7,1.25,3,1.25 1.5 0.5,1.25,6.04131491855e-06,$1.5,4.15340764448e-06,n/a,n/a,,1,2
8,1.5,3,1.5 0.5 1.0,1.5,6.04131491855e-06,$0.5,4.15340764448e-06,n/a,n/a,,1,2
7,1.25,2,1.25 0.5 1.5,1.25,6.04131491855e-06,$1.25,4.15340764448e-06,n/a,n/a,,1,2
6,0.75,6,1.75 0.75 1.0 1.25,0.75,2.42662596842,$1.75,1.28214981139,6,5,3.12207615282,0,2
1,1.5,2,..\..\JOCN-master\task a\images\boulder_kettle_hickory_bbq.jpg ..\..\JOCN-master\task a\images\nabisco_chips ahhoy_mini.jpg,2,2.12873517472,..\..\JOCN-master\task a\images\boulder_kettle_hickory_bbq.jpg,1.70789337257,6,7,3.59928440815,0,1
5,0.5,12,..\..\JOCN-master\task a\images\barnum's_animal_crackers.jpg ..\..\JOCN-master\task a\images\haribo_gold_bears.jpg ..\..\JOCN-master\task a\images\nutrigrain_blueberry_bar.jpg ..\..\JOCN-master\task a\images\boulder_kettle_sea_salt.jpg ..\..\JOCN-master\task a\images\jacklinks_beef_jerky_original.jpg ..\..\JOCN-master\task a\images\doritos_nacho cheesier_chips.jpg ..\..\JOCN-master\task a\images\cheez itz_original.jpg ..\..\JOCN-master\task a\images\jacklinks_beef_stick.jpg ..\..\JOCN-master\task a\images\doritos_cool ranch_chips.jpg ..\..\JOCN-master\task a\images\planters_salted_cashews.jpg ..\..\JOCN-master\task a\images\m&m's_milk_chocholate.jpg ..\..\JOCN-master\task a\images\lance_toasty_with_pb.jpg,12,1.35335293983,..\..\JOCN-master\task a\images\doritos_cool ranch_chips.jpg,3.94972997281,5,7,3.17549633991,0,2
2,0.75,3,0.5 1.75 0.75 1.0,0.75,1.60173113423,$1.75,0.832986021589,6,7,3.18491774582,0,1
5,1.5,12,..\..\JOCN-master\task a\images\reeses_peanut butter cups_milk choc.jpg ..\..\JOCN-master\task a\images\special_k_pastry_crisps_strawberry.jpg ..\..\JOCN-master\task a\images\nestle_butterfinger_bar.jpg ..\..\JOCN-master\task a\images\nabisco_teddy graham_honey.jpg ..\..\JOCN-master\task a\images\nabisco_ritz bits_cookies.jpg ..\..\JOCN-master\task a\images\jacklinks_beef_stick.jpg ..\..\JOCN-master\task a\images\nutrigrain_strawberry_bar.jpg ..\..\JOCN-master\task a\images\pepperidge farms-goldish-cheddar.jpg ..\..\JOCN-master\task a\images\keebler_chips_deluxe.jpg ..\..\JOCN-master\task a\images\boulder_kettle_sea_salt.jpg ..\..\JOCN-master\task a\images\slim_jim.jpg ..\..\JOCN-master\task a\images\lance_toast_cheese_with_pb.JPG,12,1.62931268517,..\..\JOCN-master\task a\images\reeses_peanut butter cups_milk choc.jpg,4.30982009385,5,2,3.13808408508,0,2
6,1.5,12,1.25 1.75 1.5 1.0 0.5 0.75,1.5,2.17724718392,$1.75,3.09756698011,5,7,4.00703207211,0,2
8,1.0,6,1.5 0.5 1.75 0.75 1.0 1.25,1.0,6.41890801489e-06,$1.25,3.77581454813e-06,n/a,n/a,,1,2
4,1.5,3,1.75 0.5 0.75 1.5,1.5,5.6637218222e-06,$0.75,3.77575634047e-06,n/a,n/a,,1,1
1,1.25,3,..\..\JOCN-master\task a\images\hersheys_milk choc_almond.jpg ..\..\JOCN-master\task a\images\quaker_chewy_peanut butter choc chip.jpg ..\..\JOCN-master\task a\images\twix_milk chocolate_cookie bars.jpg,3,2.55029589147,..\..\JOCN-master\task a\images\twix_milk chocolate_cookie bars.jpg,1.22741790727,6,7,3.52475629968,0,1
1,0.75,2,..\..\JOCN-master\task a\images\kettle_bbq.jpg ..\..\JOCN-master\task a\images\fiber one_cinamon_coffee cake.jpg,2,1.03811229038,..\..\JOCN-master\task a\images\kettle_bbq.jpg,2.39486534888,6,7,3.47692695732,0,1
2,1.25,6,1.75 1.25,1.25,2.68845398253,$1.75,1.3494189214,6,7,3.35626220296,0,1
1,1.0,2,..\..\JOCN-master\task a\images\poptarts_strawberry_frosted.jpg ..\..\JOCN-master\task a\images\nestle_crunch_bar.jpg,2,1.55711727327,..\..\JOCN-master\task a\images\nestle_crunch_bar.jpg,2.90486690833,4,6,n/a,1,1
6,1.5,12,1.5 1.25 0.5,1.5,1.75457071472,$1.25,4.41314216651,4,6,3.33918458316,0,2
2,0.5,3,0.5 1.25 0.75 1.75,0.5,2.0594426071,$1.75,1.41589775402,6,4,n/a,1,1
5,1.5,12,..\..\JOCN-master\task a\images\kettle_salt_pepper.jpg ..\..\JOCN-master\task a\images\nature valley_oats and honey_crunchy.jpg ..\..\JOCN-master\task a\images\boulder_kettle_hickory_bbq.jpg ..\..\JOCN-master\task a\images\pepperidge farms-goldish-cheddar.jpg ..\..\JOCN-master\task a\images\nabisco_mini_ritz.jpg ..\..\JOCN-master\task a\images\pringles_the original_potato crisps.jpg ..\..\JOCN-master\task a\images\popchips_ridges_tangy_bbq.jpg ..\..\JOCN-master\task a\images\hersey_milk_chocolate.jpg ..\..\JOCN-master\task a\images\baked_ruffles_cheddar &sour.JPG ..\..\JOCN-master\task a\images\lance_choc-o_cookies.jpg ..\..\JOCN-master\task a\images\snickers_almond_bar.jpg ..\..\JOCN-master\task a\images\austin_cheddar cheese_cheese cracker.jpg,12,1.47780143534,..\..\JOCN-master\task a\images\kettle_salt_pepper.jpg,2.10689776647,7,7,n/a,1,2
6,0.75,2,1.0 1.25 1.75 1.5 0.5 0.75,0.75,1.63415667432,$1.25,1.39942917274,5,6,2.77018898318,0,2
1,0.75,2,1.75 1.0 0.75,0.75,1.51980658784,$1.75,0.816169310419,7,7,2.87043037079,0,1
5,1.5,12,..\..\JOCN-master\task a\images\garden_veggie straws_sea salt.jpg ..\..\JOCN-master\task a\images\quaker_chewy_peanut butter choc chip.jpg ..\..\JOCN-master\task a\images\belvita_blueberry.JPG ..\..\JOCN-master\task a\images\kettle_bbq.jpg ..\..\JOCN-master\task a\images\3 musketeers_candy bar.jpg ..\..\JOCN-master\task a\images\keebler_cheese_and_peanut_butter.jpg ..\..\JOCN-master\task a\images\special_k_cracker_chips.jpg ..\..\JOCN-master\task a\images\poptarts_strawberry_frosted.jpg ..\..\JOCN-master\task a\images\hersheys_milk choc_almond.jpg ..\..\JOCN-master\task a\images\mini_fudge_stripes.jpg ..\..\JOCN-master\task a\images\famous_amos_chocolate_chip.jpg ..\..\JOCN-master\task a\images\kettle_salt_pepper.jpg,12,1.30938474275,..\..\JOCN-master\task a\images\hersheys_milk choc_almond.jpg,2.81580607733,1,3,n/a,1,2
7,1.25,2,..\..\JOCN-master\task a\images\welch's_berry.jpg ..\..\JOCN-master\task a\images\quakers_popped_rice_crisps.jpg,2,6.04125671089e-06,..\..\JOCN-master\task a\images\quakers_popped_rice_crisps.jpg,1.13274436444e-05,n/a,n/a,,1,2
6,0.5,3,1.25 1.75 0.5 1.5,0.5,2.2033637198,$1.75,1.43254946219,5,6,3.41850872798,0,2
4,0.5,2,1.5 0.5 0.75 1.75,0.5,6.04131491855e-06,$0.75,4.15340764448e-06,n/a,n/a,,1,1
1,1.25,6,..\..\JOCN-master\task a\images\grandmas_chocolate chip_cookies.jpg ..\..\JOCN-master\task a\images\cheez itz_original.jpg ..\..\JOCN-master\task a\images\sourpatchkids_original_candy.jpg ..\..\JOCN-master\task a\images\quaker_chewy_chocolate chip.jpg ..\..\JOCN-master\task a\images\poptarts_strawberry_frosted.jpg ..\..\JOCN-master\task a\images\kitkat_crisp wafers_milk choc.jpg,6,1.9229590887,..\..\JOCN-master\task a\images\kitkat_crisp wafers_milk choc.jpg,3.48241736536,6,6,3.59990288608,0,1
1,1.25,12,..\..\JOCN-master\task a\images\special_k_pastry_crisps_blueberry.jpg ..\..\JOCN-master\task a\images\skittles_sour_candy.jpg ..\..\JOCN-master\task a\images\chex mix_original_traditional.jpg ..\..\JOCN-master\task a\images\haribo_gold_bears.jpg ..\..\JOCN-master\task a\images\m&m's_milk_chocholate.jpg ..\..\JOCN-master\task a\images\m&m's_peanut_butter.jpg ..\..\JOCN-master\task a\images\nabisco_chips ahhoy_mini.jpg ..\..\JOCN-master\task a\images\m&m's_peanut.jpg ..\..\JOCN-master\task a\images\quaker_chewy_peanut butter choc chip.jpg ..\..\JOCN-master\task a\images\skittles_wild berry_candy.jpg ..\..\JOCN-master\task a\images\keebler_chips_deluxe.jpg ..\..\JOCN-master\task a\images\famous_amos_chocolate_chip.jpg,12,2.33303038735,..\..\JOCN-master\task a\images\m&m's_milk_chocholate.jpg,2.76339931815,5,7,4.00195436022,0,1
6,1.0,3,1.75 1.0,1.0,1.42362759617,$1.75,1.61582133156,6,7,3.69844402565,0,2
2,0.75,12,..\..\JOCN-master\task a\images\reeses_peanut butter cups_milk choc.jpg ..\..\JOCN-master\task a\images\nestle_babyruth_bar.jpg ..\..\JOCN-master\task a\images\planters_salted_cashews.jpg ..\..\JOCN-master\task a\images\quaker_chewy_chocolate chip.jpg ..\..\JOCN-master\task a\images\pirates booty_aged white cheddar_ corn puffs.jpg ..\..\JOCN-master\task a\images\lance_toast_cheese_with_pb.JPG ..\..\JOCN-master\task a\images\pepperidge farms-goldish-cheddar.jpg ..\..\JOCN-master\task a\images\skittles_sour_candy.jpg ..\..\JOCN-master\task a\images\kettle_original.jpg ..\..\JOCN-master\task a\images\nestle_butterfinger_bar.jpg ..\..\JOCN-master\task a\images\kettle_salt_vinegar.jpg ..\..\JOCN-master\task a\images\sourpatch_watermelon_candy.jpg,12,2.62589859602,..\..\JOCN-master\task a\images\kettle_original.jpg,1.8180069981,6,7,4.13148811925,0,1
7,1.0,12,1.75 1.0 0.75,1.0,6.04125671089e-06,$0.75,4.15340764448e-06,n/a,n/a,,1,2
7,1.75,2,..\..\JOCN-master\task a\images\snyders_mini_pretzels.jpg ..\..\JOCN-master\task a\images\teddy_grahams_chocolate.jpg,2,5.66366361454e-06,..\..\JOCN-master\task a\images\teddy_grahams_chocolate.jpg,1.0194722563e-05,n/a,n/a,,1,2
5,0.75,2,..\..\JOCN-master\task a\images\nabisco_mini_ritz.jpg ..\..\JOCN-master\task a\images\doritos_cool ranch_chips.jpg,2,2.34128355706,..\..\JOCN-master\task a\images\doritos_cool ranch_chips.jpg,1.19594047358,7,7,3.13745276933,0,2
7,1.5,6,0.75 0.5 1.5 1.0,1.5,6.41890801489e-06,$1.5,3.39822145179e-06,n/a,n/a,,1,2
6,1.5,2,1.0 0.75 1.5 1.25 1.75 0.5,1.5,2.83603952068,$0.75,1.81514417747,5,6,3.81753124582,0,2
8,0.5,12,..\..\JOCN-master\task a\images\starburst_orignal_candy.jpg ..\..\JOCN-master\task a\images\belvita_golden_oats.JPG ..\..\JOCN-master\task a\images\garden_veggie straws_cheddar.jpg ..\..\JOCN-master\task a\images\belvita_banana_bread.jpg ..\..\JOCN-master\task a\images\sunchips_harvest cheddar_chips.jpg ..\..\JOCN-master\task a\images\boulder_kettle_hickory_bbq.jpg ..\..\JOCN-master\task a\images\fiber one_chocolate fudge_ brownie.jpg ..\..\JOCN-master\task a\images\pringles_the original_potato crisps.jpg ..\..\JOCN-master\task a\images\keebler_chips_deluxe.jpg ..\..\JOCN-master\task a\images\welch's_white_grape_raspberry.jpg ..\..\JOCN-master\task a\images\nabisco_chips ahhoy_mini.jpg ..\..\JOCN-master\task a\images\hersey_milk_chocolate.jpg,12,6.41890801489e-06,..\..\JOCN-master\task a\images\belvita_golden_oats.JPG,9.43953637034e-06,n/a,n/a,,1,2
2,0.5,3,..\..\JOCN-master\task a\images\special_k_pastry_crisps_strawberry.jpg ..\..\JOCN-master\task a\images\garden_veggie straws_sea salt.jpg ..\..\JOCN-master\task a\images\sunchips_harvest cheddar_chips.jpg,3,2.30283861764,..\..\JOCN-master\task a\images\sunchips_harvest cheddar_chips.jpg,1.99582621746,3,3,3.28319797677,0,1
1,0.5,6,..\..\JOCN-master\task a\images\sourpatchkids_original_candy.jpg ..\..\JOCN-master\task a\images\lays_kc masterpiece_barbecue chips.jpg ..\..\JOCN-master\task a\images\quaker_chewy_peanut butter choc chip.jpg ..\..\JOCN-master\task a\images\fiber one_cinamon_coffee cake.jpg ..\..\JOCN-master\task a\images\swedish fish_original_candy.jpg ..\..\JOCN-master\task a\images\hersheys_milk choc_almond.jpg,6,1.03308630717,..\..\JOCN-master\task a\images\lays_kc masterpiece_barbecue chips.jpg,1.26764654019,6,7,3.99280065944,0,1
4,1.0,2,..\..\JOCN-master\task a\images\garden_veggie straws_cheddar.jpg ..\..\JOCN-master\task a\images\sunchips_harvest cheddar_chips.jpg,2,5.6637218222e-06,..\..\JOCN-master\task a\images\garden_veggie straws_cheddar.jpg,9.43953637034e-06,n/a,n/a,,1,1
1,0.5,2,..\..\JOCN-master\task a\images\nutrigrain_blueberry_bar.jpg ..\..\JOCN-master\task a\images\welch's_white_grape_raspberry.jpg,2,2.09306092613,..\..\JOCN-master\task a\images\welch's_white_grape_raspberry.jpg,1.02759854204,5,5,3.67666363221,0,1
7,1.5,12,..\..\JOCN-master\task a\images\baked_cheetos_crunchy.jpg ..\..\JOCN-master\task a\images\nestle_crunch_bar.jpg ..\..\JOCN-master\task a\images\swedish fish_original_candy.jpg ..\..\JOCN-master\task a\images\haribo_gold_bears.jpg ..\..\JOCN-master\task a\images\fiber one_cinamon_coffee cake.jpg ..\..\JOCN-master\task a\images\nabisco_oreo_mini.jpg ..\..\JOCN-master\task a\images\boulder_kettle_olive_oil.jpg ..\..\JOCN-master\task a\images\planters_honey roasted_peanuts.jpg ..\..\JOCN-master\task a\images\ritz_toasted_chips.jpg ..\..\JOCN-master\task a\images\skinny_pop_popcorn.jpg ..\..\JOCN-master\task a\images\popchips_ridges_tangy_bbq.jpg ..\..\JOCN-master\task a\images\pringles_the original_potato crisps.jpg,12,6.04125671089e-06,..\..\JOCN-master\task a\images\nabisco_oreo_mini.jpg,9.81712946668e-06,n/a,n/a,,1,2
3,0.75,3,0.75 1.0,0.75,6.41884980723e-06,$0.75,3.77581454813e-06,n/a,n/a,,1,1
1,1.5,2,0.5 1.25 1.5,1.5,2.40994518652,$1.25,1.91517374211,4,6,3.42978103692,0,1
7,1.5,2,..\..\JOCN-master\task a\images\nestle_babyruth_bar.jpg ..\..\JOCN-master\task a\images\boulder_kettle_olive_oil.jpg,2,6.79644290358e-06,..\..\JOCN-master\task a\images\boulder_kettle_olive_oil.jpg,1.09498505481e-05,n/a,n/a,,1,2
3,1.25,12,..\..\JOCN-master\task a\images\chips_ahoy_thin_crisps.jpg ..\..\JOCN-master\task a\images\nabisco_ritz bits_cookies.jpg ..\..\JOCN-master\task a\images\pringles_cheddar_potato crisps.jpg ..\..\JOCN-master\task a\images\sun chips_original_chips.jpg ..\..\JOCN-master\task a\images\swedish fish_original_candy.jpg ..\..\JOCN-master\task a\images\doritos_nacho cheesier_chips.jpg ..\..\JOCN-master\task a\images\special_k_pastry_crisps_blueberry.jpg ..\..\JOCN-master\task a\images\nabisco_teddy graham_honey.jpg ..\..\JOCN-master\task a\images\m&m's_peanut.jpg ..\..\JOCN-master\task a\images\snyders_mini_pretzels.jpg ..\..\JOCN-master\task a\images\sunchips_harvest cheddar_chips.jpg ..\..\JOCN-master\task a\images\quaker_chewy_dark choc chunk.jpg,12,5.6637218222e-06,..\..\JOCN-master\task a\images\special_k_pastry_crisps_blueberry.jpg,1.05723156594e-05,n/a,n/a,,1,1
7,1.75,2,..\..\JOCN-master\task a\images\sun chips_french onion_chips.jpg ..\..\JOCN-master\task a\images\mini_fudge_stripes.jpg,2,6.04131491855e-06,..\..\JOCN-master\task a\images\mini_fudge_stripes.jpg,8.68435017765e-06,n/a,n/a,,1,2
5,1.25,3,..\..\JOCN-master\task a\images\nuture valley_crunchy_bar.jpg ..\..\JOCN-master\task a\images\quaker_chewy_dark choc chunk.jpg ..\..\JOCN-master\task a\images\keebler_fudge_stripes.jpg,3,2.67690075317,..\..\JOCN-master\task a\images\keebler_fudge_stripes.jpg,2.0982953342,6,5,4.30582188664,0,2
4,1.75,12,..\..\JOCN-master\task a\images\emerald_cashews.jpg ..\..\JOCN-master\task a\images\special_k_cracker_chips.jpg ..\..\JOCN-master\task a\images\pringles_cheddar_potato crisps.jpg ..\..\JOCN-master\task a\images\cheez itz_original.jpg ..\..\JOCN-master\task a\images\doritos_cool ranch_chips.jpg ..\..\JOCN-master\task a\images\kettle_salt_pepper.jpg ..\..\JOCN-master\task a\images\welch's_mixed fruit_fruit snacks.jpg ..\..\JOCN-master\task a\images\skittles_original_candy.jpg ..\..\JOCN-master\task a\images\nabisco_chips ahhoy_mini.jpg ..\..\JOCN-master\task a\images\skinny_pop_popcorn.jpg ..\..\JOCN-master\task a\images\lays_classic_potato chips.jpg ..\..\JOCN-master\task a\images\chips_ahoy_thin_crisps.jpg,12,6.04125671089e-06,..\..\JOCN-master\task a\images\pringles_cheddar_potato crisps.jpg,1.09498505481e-05,n/a,n/a,,1,1
3,1.75,12,1.25 1.75,1.75,6.04131491855e-06,$1.25,4.15334943682e-06,n/a,n/a,,1,1
2,0.75,6,1.75 0.75 1.25 0.5 1.0 1.5,0.75,2.52753945062,$1.25,0.69952692854,5,6,3.12048804632,0,1
5,0.5,3,..\..\JOCN-master\task a\images\quaker_chewy_peanut butter choc chip.jpg ..\..\JOCN-master\task a\images\skittles_original_candy.jpg ..\..\JOCN-master\task a\images\mini_fudge_stripes.jpg,3,1.56085721502,..\..\JOCN-master\task a\images\mini_fudge_stripes.jpg,1.81866814272,1,6,n/a,1,2
5,1.0,6,..\..\JOCN-master\task a\images\special_k_pastry_crisps_blueberry.jpg ..\..\JOCN-master\task a\images\ritz_toasted_chips.jpg ..\..\JOCN-master\task a\images\reeses_peanut butter cups_milk choc.jpg ..\..\JOCN-master\task a\images\garden_veggie straws_sea salt.jpg ..\..\JOCN-master\task a\images\nabisco_ritz bits_cookies.jpg ..\..\JOCN-master\task a\images\cheez-it_white_cheddar.JPG,6,1.78948980098,..\..\JOCN-master\task a\images\cheez-it_white_cheddar.JPG,1.60045566497,3,4,3.16159568832,0,2
5,1.25,6,..\..\JOCN-master\task a\images\skittles_sour_candy.jpg ..\..\JOCN-master\task a\images\popchips_ridges_tangy_bbq.jpg ..\..\JOCN-master\task a\images\cheez-it_white_cheddar.JPG ..\..\JOCN-master\task a\images\baked_ruffles_cheddar &sour.JPG ..\..\JOCN-master\task a\images\boulder_kettle_olive_oil.jpg ..\..\JOCN-master\task a\images\doritos_nacho cheesier_chips.jpg,6,1.33845056535,..\..\JOCN-master\task a\images\doritos_nacho cheesier_chips.jpg,3.08278996253,5,7,2.91385296307,0,2
6,0.75,3,1.25 0.75,0.75,1.55055377941,$1.25,1.61554305424,5,6,3.39027471672,0,2
5,1.75,6,..\..\JOCN-master\task a\images\quakers_popped_rice_crisps.jpg ..\..\JOCN-master\task a\images\sourpatch_watermelon_candy.jpg ..\..\JOCN-master\task a\images\starburst_orignal_candy.jpg ..\..\JOCN-master\task a\images\boulder_kettle_olive_oil.jpg ..\..\JOCN-master\task a\images\pringles_sour cream and onion_potato crisps.jpg ..\..\JOCN-master\task a\images\hersey_milk_chocolate.jpg,6,1.49678357464,..\..\JOCN-master\task a\images\sourpatch_watermelon_candy.jpg,1.59844542271,6,7,3.88402555924,0,2
8,1.25,12,0.75 1.5 1.0 1.75 0.5 1.25,1.25,6.04131491855e-06,$1.75,4.15334943682e-06,n/a,n/a,,1,2
5,1.25,12,..\..\JOCN-master\task a\images\popchips_ridges_tangy_bbq.jpg ..\..\JOCN-master\task a\images\baked_ruffles_cheddar &sour.JPG ..\..\JOCN-master\task a\images\m&m's_peanut.jpg ..\..\JOCN-master\task a\images\belvita_blueberry.JPG ..\..\JOCN-master\task a\images\3 musketeers_candy bar.jpg ..\..\JOCN-master\task a\images\sourpatchkids_original_candy.jpg ..\..\JOCN-master\task a\images\sunchips_harvest cheddar_chips.jpg ..\..\JOCN-master\task a\images\quaker_chewy_dark choc chunk.jpg ..\..\JOCN-master\task a\images\wheat_thins.jpg ..\..\JOCN-master\task a\images\twix_milk chocolate_cookie bars.jpg ..\..\JOCN-master\task a\images\keebler_fudge_stripes.jpg ..\..\JOCN-master\task a\images\lays_classic_potato chips.jpg,12,1.22991560685,..\..\JOCN-master\task a\images\lays_classic_potato chips.jpg,1.7009364391,4,7,2.96565748024,0,2
2,0.75,12,..\..\JOCN-master\task a\images\emerald_cashews.jpg ..\..\JOCN-master\task a\images\baked_lays_classic.jpg ..\..\JOCN-master\task a\images\welch's_white_grape_raspberry.jpg ..\..\JOCN-master\task a\images\kitkat_crisp wafers_milk choc.jpg ..\..\JOCN-master\task a\images\mini_fudge_stripes.jpg ..\..\JOCN-master\task a\images\austin_peanut butter_cheese cracker.jpg ..\..\JOCN-master\task a\images\baked_ruffles_cheddar &sour.JPG ..\..\JOCN-master\task a\images\hersheys_milk choc_almond.jpg ..\..\JOCN-master\task a\images\sunchips_harvest cheddar_chips.jpg ..\..\JOCN-master\task a\images\kettle_salt_pepper.jpg ..\..\JOCN-master\task a\images\nabisco_oreo_mini.jpg ..\..\JOCN-master\task a\images\snickers_milk chocolate_candy bar.jpg,12,1.59857644339,..\..\JOCN-master\task a\images\nabisco_oreo_mini.jpg,3.36763268302,5,4,3.71293974522,0,1
4,1.75,12,..\..\JOCN-master\task a\images\grandmas_chocolate chip_cookies.jpg ..\..\JOCN-master\task a\images\m&m's_milk_chocholate.jpg ..\..\JOCN-master\task a\images\special_k_pastry_crisps_strawberry.jpg ..\..\JOCN-master\task a\images\cheez itz_original.jpg ..\..\JOCN-master\task a\images\pringles_sour cream and onion_potato crisps.jpg ..\..\JOCN-master\task a\images\austin_peanut_butter.jpg ..\..\JOCN-master\task a\images\twix_milk chocolate_cookie bars.jpg ..\..\JOCN-master\task a\images\lance_van-o_cookies.jpg ..\..\JOCN-master\task a\images\special_k_pastry_crisps_blueberry.jpg ..\..\JOCN-master\task a\images\kettle_salt_pepper.jpg ..\..\JOCN-master\task a\images\nature valley_oats and honey_crunchy.jpg ..\..\JOCN-master\task a\images\emerald_cashews.jpg,12,6.41890801489e-06,..\..\JOCN-master\task a\images\cheez itz_original.jpg,1.51032581925e-05,n/a,n/a,,1,1
7,1.0,2,1.25 0.5 1.5 1.0,1.0,6.41890801489e-06,$1.5,4.15340764448e-06,n/a,n/a,,1,2
3,1.75,6,1.75 0.75,1.75,6.04131491855e-06,$0.75,4.15340764448e-06,n/a,n/a,,1,1
1,0.75,3,1.0 0.5 0.75,0.75,2.30548055324,0.5,n/a,5,3,n/a,1,1
1,0.5,12,..\..\JOCN-master\task a\images\slim_jim.jpg ..\..\JOCN-master\task a\images\skittles_wild berry_candy.jpg ..\..\JOCN-master\task a\images\swedish fish_original_candy.jpg ..\..\JOCN-master\task a\images\welch's_mixed fruit_fruit snacks.jpg ..\..\JOCN-master\task a\images\m&m's_peanut_butter.jpg ..\..\JOCN-master\task a\images\kettle_salt_vinegar.jpg ..\..\JOCN-master\task a\images\boulder_kettle_hickory_bbq.jpg ..\..\JOCN-master\task a\images\jacklinks_beef_stick.jpg ..\..\JOCN-master\task a\images\starburst_orignal_candy.jpg ..\..\JOCN-master\task a\images\twix_milk chocolate_cookie bars.jpg ..\..\JOCN-master\task a\images\chex mix_original_traditional.jpg ..\..\JOCN-master\task a\images\special_k_pastry_crisps_strawberry.jpg,12,2.82909051637,..\..\JOCN-master\task a\images\kettle_salt_vinegar.jpg,2.05607949139,7,7,3.85856941278,0,1
8,1.25,12,1.5 1.75 1.25 0.5,1.25,6.41890801489e-06,$1.25,3.77581454813e-06,n/a,n/a,,1,2
7,1.0,3,1.0 0.75 1.5 1.75 1.25 0.5,1.0,6.41890801489e-06,$0.75,3.77581454813e-06,n/a,n/a,,1,2
3,1.75,6,1.5 1.25 1.75,1.75,6.41884980723e-06,$1.75,3.77581454813e-06,n/a,n/a,,1,1
2,0.5,3,1.25 1.75 1.0 1.5 0.5 0.75,0.5,2.27157111908,$0.75,1.91566950618,2,3,3.94049207139,0,1
1,0.75,12,..\..\JOCN-master\task a\images\boulder_kettle_hickory_bbq.jpg ..\..\JOCN-master\task a\images\m&m's_peanut.jpg ..\..\JOCN-master\task a\images\jacklinks_beef_stick.jpg ..\..\JOCN-master\task a\images\quaker_chewy_peanut butter choc chip.jpg ..\..\JOCN-master\task a\images\lays_kc masterpiece_barbecue chips.jpg ..\..\JOCN-master\task a\images\m&m's_milk_chocholate.jpg ..\..\JOCN-master\task a\images\special_k_pastry_crisps_blueberry.jpg ..\..\JOCN-master\task a\images\cheez itz_original.jpg ..\..\JOCN-master\task a\images\poptarts_strawberry_frosted.jpg ..\..\JOCN-master\task a\images\haribo_gold_bears.jpg ..\..\JOCN-master\task a\images\nutrigrain_blueberry_bar.jpg ..\..\JOCN-master\task a\images\garden_veggie straws_sea salt.jpg,12,2.03592685045,..\..\JOCN-master\task a\images\lays_kc masterpiece_barbecue chips.jpg,1.41402834957,6,7,3.76772753138,0,1
2,1.0,12,0.75 1.25 1.0 0.5 1.5 1.75,1.0,2.19834340026,$1.75,2.93151960947,5,5,3.63177451456,0,1
8,0.5,2,..\..\JOCN-master\task a\images\ritz_toasted_chips.jpg ..\..\JOCN-master\task a\images\snickers_milk chocolate_candy bar.jpg,2,6.41884980723e-06,..\..\JOCN-master\task a\images\ritz_toasted_chips.jpg,1.05722574517e-05,n/a,n/a,,1,2
5,1.75,6,1.75 1.5,1.75,2.1809901463,$1.75,0.699668521469,5,7,3.58692655328,0,2
3,0.75,6,1.5 0.75,0.75,5.66366361454e-06,$1.5,4.15340764448e-06,n/a,n/a,,1,1
6,0.75,2,1.0 0.75 0.5 1.25,0.75,4.00162397668,$1.25,3.38200568868,6,5,4.21876261354,0,2
2,0.5,6,..\..\JOCN-master\task a\images\famous_amos_chocolate_chip.jpg ..\..\JOCN-master\task a\images\haribo_gold_bears.jpg ..\..\JOCN-master\task a\images\special_k_pastry_crisps_strawberry.jpg ..\..\JOCN-master\task a\images\sun chips_original_chips.jpg ..\..\JOCN-master\task a\images\hersey_milk_chocolate.jpg ..\..\JOCN-master\task a\images\quakers_popped_rice_crisps.jpg,6,2.4812170348,..\..\JOCN-master\task a\images\hersey_milk_chocolate.jpg,1.85892924771,2,6,n/a,1,1
5,1.0,12,..\..\JOCN-master\task a\images\hersey_milk_chocolate.jpg ..\..\JOCN-master\task a\images\welch's_white_grape_raspberry.jpg ..\..\JOCN-master\task a\images\nuture valley_crunchy_bar.jpg ..\..\JOCN-master\task a\images\nestle_butterfinger_bar.jpg ..\..\JOCN-master\task a\images\austin_peanut butter_cheese cracker.jpg ..\..\JOCN-master\task a\images\hersheys_milk choc_almond.jpg ..\..\JOCN-master\task a\images\nestle_crunch_bar.jpg ..\..\JOCN-master\task a\images\wheat_thins.jpg ..\..\JOCN-master\task a\images\baked_lays_classic.jpg ..\..\JOCN-master\task a\images\jacklinks_beef_jerky_original.jpg ..\..\JOCN-master\task a\images\keebler_fudge_stripes.jpg ..\..\JOCN-master\task a\images\pringles_the original_potato crisps.jpg,12,1.29867012129,..\..\JOCN-master\task a\images\hersheys_milk choc_almond.jpg,1.7374175787,6,7,3.3582951001,0,2
1,1.0,6,..\..\JOCN-master\task a\images\mini_fudge_stripes.jpg ..\..\JOCN-master\task a\images\pepperidge farms-goldish-cheddar.jpg ..\..\JOCN-master\task a\images\m&m's_milk_chocholate.jpg ..\..\JOCN-master\task a\images\nabisco_chips ahhoy_mini.jpg ..\..\JOCN-master\task a\images\poptarts_strawberry_frosted.jpg ..\..\JOCN-master\task a\images\quaker_chewy_dark choc chunk.jpg,6,1.06963427865,..\..\JOCN-master\task a\images\m&m's_milk_chocholate.jpg,1.52577274822,6,7,3.24982848373,0,1
6,1.0,3,1.0 1.75 1.25 1.5 0.75 0.5,1.0,1.29738559009,$1.75,1.59910392429,5,7,3.56376949878,0,2
7,1.0,3,..\..\JOCN-master\task a\images\boulder_kettle_sea_salt.jpg ..\..\JOCN-master\task a\images\austin_cheddar cheese_cheese cracker.jpg ..\..\JOCN-master\task a\images\pirates booty_aged white cheddar_ corn puffs.jpg,3,6.41884980723e-06,..\..\JOCN-master\task a\images\austin_cheddar cheese_cheese cracker.jpg,1.0194722563e-05,n/a,n/a,,1,2
2,1.25,6,1.0 1.5 0.5 1.25,1.25,4.24508908461,$1.25,3.50970968918,5,4,3.4552704104,0,1
8,0.5,12,1.75 0.5 1.5 1.25,0.5,6.04131491855e-06,$1.5,3.77581454813e-06,n/a,n/a,,1,2
2,1.25,12,..\..\JOCN-master\task a\images\pringles_the original_potato crisps.jpg ..\..\JOCN-master\task a\images\austin_cheddar cheese_cheese cracker.jpg ..\..\JOCN-master\task a\images\garden_veggie straws_cheddar.jpg ..\..\JOCN-master\task a\images\baked_lays_barbeque.jpg ..\..\JOCN-master\task a\images\quaker_chewy_chocolate chip.jpg ..\..\JOCN-master\task a\images\baked_ruffles_cheddar &sour.JPG ..\..\JOCN-master\task a\images\famous_amos_chocolate_chip.jpg ..\..\JOCN-master\task a\images\fiber one_cinamon_coffee cake.jpg ..\..\JOCN-master\task a\images\kettle_salt_vinegar.jpg ..\..\JOCN-master\task a\images\keebler_cheese_and_peanut_butter.jpg ..\..\JOCN-master\task a\images\cheez-it_white_cheddar.JPG ..\..\JOCN-master\task a\images\sunchips_harvest cheddar_chips.jpg,12,2.96243709023,..\..\JOCN-master\task a\images\famous_amos_chocolate_chip.jpg,2.74229215196,6,5,3.20423215657,0,1
5,1.75,2,..\..\JOCN-master\task a\images\jacklinks_beef_jerky_original.jpg ..\..\JOCN-master\task a\images\nabisco_oreo_mini.jpg,2,1.63332486292,..\..\JOCN-master\task a\images\nabisco_oreo_mini.jpg,1.16080918669,5,4,4.28188172873,0,2
4,0.75,3,..\..\JOCN-master\task a\images\fiber one_chocolate fudge_ brownie.jpg ..\..\JOCN-master\task a\images\austin_peanut butter_cheese cracker.jpg ..\..\JOCN-master\task a\images\planters_salted_peanuts.jpg,3,5.6637218222e-06,..\..\JOCN-master\task a\images\fiber one_chocolate fudge_ brownie.jpg,1.05722574517e-05,n/a,n/a,,1,1
1,1.0,2,1.25 1.0 1.75 0.75,1.0,3.35591369553,$1.75,0.832705856301,6,5,3.30463590409,0,1
5,0.5,2,0.5 1.5,0.5,1.39087582601,$1.5,2.91431398969,4,3,4.07559402019,0,2
5,1.0,3,..\..\JOCN-master\task a\images\m&m's_peanut.jpg ..\..\JOCN-master\task a\images\snyders_mini_pretzels.jpg ..\..\JOCN-master\task a\images\poptarts_brown_sugar.jpg,3,2.9770475945,..\..\JOCN-master\task a\images\m&m's_peanut.jpg,1.62779443123,2,3,n/a,1,2
4,1.75,12,1.5 1.75,1.75,6.79644290358e-06,$1.5,4.15334943682e-06,n/a,n/a,,1,1
4,1.25,12,1.75 0.75 0.5 1.0 1.25 1.5,1.25,6.04131491855e-06,$1.25,4.15334943682e-06,n/a,n/a,,1,1
5,1.0,2,..\..\JOCN-master\task a\images\hersheys_milk choc_almond.jpg ..\..\JOCN-master\task a\images\wheat_thins.jpg,2,1.61771603406,..\..\JOCN-master\task a\images\hersheys_milk choc_almond.jpg,1.39809782145,5,7,3.64215799735,0,2
5,1.75,12,..\..\JOCN-master\task a\images\pringles_sour cream and onion_potato crisps.jpg ..\..\JOCN-master\task a\images\planters_salted_peanuts.jpg ..\..\JOCN-master\task a\images\baked_lays_barbeque.jpg ..\..\JOCN-master\task a\images\reeses_peanut butter cups_milk choc.jpg ..\..\JOCN-master\task a\images\baked_ruffles_cheddar &sour.JPG ..\..\JOCN-master\task a\images\lance_van-o_cookies.jpg ..\..\JOCN-master\task a\images\keebler_chips_deluxe.jpg ..\..\JOCN-master\task a\images\jacklinks_beef_stick.jpg ..\..\JOCN-master\task a\images\belvita_banana_bread.jpg ..\..\JOCN-master\task a\images\boulder_kettle_hickory_bbq.jpg ..\..\JOCN-master\task a\images\nabisco_oreo_mini.jpg ..\..\JOCN-master\task a\images\nestle_butterfinger_bar.jpg,12,1.7177803361,..\..\JOCN-master\task a\images\pringles_sour cream and onion_potato crisps.jpg,2.97499279765,1,2,n/a,1,2
1,1.5,2,..\..\JOCN-master\task a\images\boulder_kettle_olive_oil.jpg ..\..\JOCN-master\task a\images\m&m's_peanut_butter.jpg,2,2.04410450393,..\..\JOCN-master\task a\images\m&m's_peanut_butter.jpg,1.41046436067,5,7,2.805208506,0,1
6,1.0,12,1.75 1.0 0.75 1.5,1.0,1.52281742025,$1.75,1.54881350772,7,7,4.08616062987,0,2
6,1.25,6,1.5 1.0 1.25 1.75 0.5 0.75,1.25,2.12095624703,$1.75,1.36628320778,6,7,3.28470452578,0,2
1,1.75,3,..\..\JOCN-master\task a\images\nabisco_oreo_mini.jpg ..\..\JOCN-master\task a\images\nabisco_ritz bits_cookies.jpg ..\..\JOCN-master\task a\images\starburst_orignal_candy.jpg,3,2.56286519184,..\..\JOCN-master\task a\images\starburst_orignal_candy.jpg,2.415071984,3,6,4.4118093049,0,1
1,1.0,12,..\..\JOCN-master\task a\images\slim_jim.jpg ..\..\JOCN-master\task a\images\poptarts_strawberry_frosted.jpg ..\..\JOCN-master\task a\images\mini_fudge_stripes.jpg ..\..\JOCN-master\task a\images\haribo_gold_bears.jpg ..\..\JOCN-master\task a\images\twix_milk chocolate_cookie bars.jpg ..\..\JOCN-master\task a\images\quaker_chewy_peanut butter choc chip.jpg ..\..\JOCN-master\task a\images\m&m's_peanut.jpg ..\..\JOCN-master\task a\images\kettle_bbq.jpg ..\..\JOCN-master\task a\images\skittles_wild berry_candy.jpg ..\..\JOCN-master\task a\images\annie's_cheddar_bunnies.jpg ..\..\JOCN-master\task a\images\cheez itz_original.jpg ..\..\JOCN-master\task a\images\hersheys_milk choc_almond.jpg,12,2.06814396568,..\..\JOCN-master\task a\images\cheez itz_original.jpg,0.221412100829,4,4,3.75267790025,0,1
6,0.5,3,..\..\JOCN-master\task a\images\nutrigrain_strawberry_bar.jpg ..\..\JOCN-master\task a\images\austin_peanut butter_cheese cracker.jpg ..\..\JOCN-master\task a\images\cheez-it_white_cheddar.JPG,3,3.23156261595,..\..\JOCN-master\task a\images\cheez-it_white_cheddar.JPG,1.52910150401,5,5,n/a,1,2
1,1.0,12,..\..\JOCN-master\task a\images\mini_fudge_stripes.jpg ..\..\JOCN-master\task a\images\jacklinks_beef_stick.jpg ..\..\JOCN-master\task a\images\kettle_salt_vinegar.jpg ..\..\JOCN-master\task a\images\twix_milk chocolate_cookie bars.jpg ..\..\JOCN-master\task a\images\pepperidge farms-goldish-cheddar.jpg ..\..\JOCN-master\task a\images\skittles_original_candy.jpg ..\..\JOCN-master\task a\images\boulder_kettle_sea_salt.jpg ..\..\JOCN-master\task a\images\special_k_pastry_crisps_strawberry.jpg ..\..\JOCN-master\task a\images\wheat_thins.jpg ..\..\JOCN-master\task a\images\doritos_nacho cheesier_chips.jpg ..\..\JOCN-master\task a\images\quaker_chewy_chocolate chip.jpg ..\..\JOCN-master\task a\images\sourpatchkids_original_candy.jpg,12,2.00330496818,..\..\JOCN-master\task a\images\kettle_salt_vinegar.jpg,2.59118831222,6,7,2.83977455384,0,1
1,1.75,2,0.5 1.75,1.75,2.12599884381,$1.75,0.999440802261,6,7,3.77078027534,0,1
6,1.5,6,0.5 1.25 1.5 1.0 0.75 1.75,1.5,1.52030763804,$1.75,1.51538171381,5,7,3.28048279043,0,2
6,1.25,3,1.5 1.25,1.25,1.96299817594,$1.25,3.46441202867,5,6,3.34827145218,0,2
2,1.5,3,1.5 1.0 1.25 1.75 0.5 0.75,1.5,2.08526123146,$1.75,2.39789128455,5,6,3.42232984962,0,1
6,1.25,2,1.75 0.75 1.0 0.5 1.5 1.25,1.25,2.41425791889,$1.75,1.73204044497,4,6,3.37391261332,0,2
7,0.75,3,..\..\JOCN-master\task a\images\lance_toast_cheese_with_pb.JPG ..\..\JOCN-master\task a\images\hersheys_milk choc_almond.jpg ..\..\JOCN-master\task a\images\skittles_original_candy.jpg,3,6.04131491855e-06,..\..\JOCN-master\task a\images\lance_toast_cheese_with_pb.JPG,1.47256650962e-05,n/a,n/a,,1,2
5,1.0,12,..\..\JOCN-master\task a\images\fiber one_chocolate fudge_ brownie.jpg ..\..\JOCN-master\task a\images\jacklinks_beef_stick.jpg ..\..\JOCN-master\task a\images\nabisco_ritz bits_cookies.jpg ..\..\JOCN-master\task a\images\kettle_bbq.jpg ..\..\JOCN-master\task a\images\lance_van-o_cookies.jpg ..\..\JOCN-master\task a\images\boulder_kettle_olive_oil.jpg ..\..\JOCN-master\task a\images\keebler_cheese_and_peanut_butter.jpg ..\..\JOCN-master\task a\images\planters_salted_cashews.jpg ..\..\JOCN-master\task a\images\poptarts_strawberry_frosted.jpg ..\..\JOCN-master\task a\images\nature_valley_sweet_and_salty.jpg ..\..\JOCN-master\task a\images\pringles_sour cream and onion_potato crisps.jpg ..\..\JOCN-master\task a\images\boulder_kettle_sea_salt.jpg,12,1.9831319378,..\..\JOCN-master\task a\images\boulder_kettle_sea_salt.jpg,1.50030149857,4,7,3.79894669948,0,2
6,0.75,6,..\..\JOCN-master\task a\images\popchips_sea_salt.jpg ..\..\JOCN-master\task a\images\nature valley_oats and honey_crunchy.jpg ..\..\JOCN-master\task a\images\nestle_butterfinger_bar.jpg ..\..\JOCN-master\task a\images\quaker_chewy_dark choc chunk.jpg ..\..\JOCN-master\task a\images\planters_salted_peanuts.jpg ..\..\JOCN-master\task a\images\quakers_popped_rice_crisps.jpg,6,3.26674261084,..\..\JOCN-master\task a\images\quakers_popped_rice_crisps.jpg,2.63323084521,5,6,4.21646994061,0,2
6,0.75,3,0.5 1.0 0.75 1.5,0.75,2.92817990389,$1.5,3.58034569066,5,6,3.27154355566,0,2
2,0.5,6,..\..\JOCN-master\task a\images\barnum's_animal_crackers.jpg ..\..\JOCN-master\task a\images\belvita_blueberry.JPG ..\..\JOCN-master\task a\images\pringles_the original_potato crisps.jpg ..\..\JOCN-master\task a\images\jacklinks_beef_jerky_original.jpg ..\..\JOCN-master\task a\images\kitkat_crisp wafers_milk choc.jpg ..\..\JOCN-master\task a\images\quaker_chewy_dark choc chunk.jpg,6,2.63696210255,..\..\JOCN-master\task a\images\jacklinks_beef_jerky_original.jpg,2.45808527822,5,6,2.76737940154,0,1
6,1.25,3,1.5 1.25 1.0,1.25,2.01803894149,$1.5,4.31327080837,5,6,4.36202258163,0,2
3,0.75,3,1.75 0.75,0.75,5.6637218222e-06,$0.75,3.77581454813e-06,n/a,n/a,,1,1
6,1.0,2,0.5 1.0,1.0,2.80893560994,$1.0,2.28156795877,6,6,3.20290911203,0,2
8,0.75,6,..\..\JOCN-master\task a\images\doritos_nacho cheesier_chips.jpg ..\..\JOCN-master\task a\images\nutrigrain_blueberry_bar.jpg ..\..\JOCN-master\task a\images\fiber one_oats and choc_chewy bar.jpg ..\..\JOCN-master\task a\images\teddy_grahams_chocolate.jpg ..\..\JOCN-master\task a\images\austin_peanut butter_cheese cracker.jpg ..\..\JOCN-master\task a\images\baked_cheetos_crunchy.jpg,6,6.41890801489e-06,..\..\JOCN-master\task a\images\nutrigrain_blueberry_bar.jpg,9.81707125902e-06,n/a,n/a,,1,2
1,1.0,2,..\..\JOCN-master\task a\images\jacklinks_beef_jerky_original.jpg ..\..\JOCN-master\task a\images\famous_amos_chocolate_chip.jpg,2,2.99777000549,..\..\JOCN-master\task a\images\jacklinks_beef_jerky_original.jpg,1.24803610583,5,7,3.7266255531,0,1
2,1.75,6,0.75 1.0 1.75,1.75,1.85709684616,$1.75,1.7655092419,7,7,2.82821150735,0,1
2,1.25,12,..\..\JOCN-master\task a\images\special_k_pastry_crisps_strawberry.jpg ..\..\JOCN-master\task a\images\kettle_original.jpg ..\..\JOCN-master\task a\images\boulder_kettle_sea_salt.jpg ..\..\JOCN-master\task a\images\grandmas_chocolate chip_cookies.jpg ..\..\JOCN-master\task a\images\pirates booty_aged white cheddar_ corn puffs.jpg ..\..\JOCN-master\task a\images\boulder_kettle_olive_oil.jpg ..\..\JOCN-master\task a\images\kellogg's_rice krispies_orignal.jpg ..\..\JOCN-master\task a\images\boulder_kettle_hickory_bbq.jpg ..\..\JOCN-master\task a\images\planters_salted_cashews.jpg ..\..\JOCN-master\task a\images\kettle_salt_vinegar.jpg ..\..\JOCN-master\task a\images\baked_ruffles_cheddar &sour.JPG ..\..\JOCN-master\task a\images\nutrigrain_strawberry_bar.jpg,12,1.86243886483,..\..\JOCN-master\task a\images\kettle_salt_vinegar.jpg,1.8890666457,5,7,4.08613986289,0,1
5,1.75,6,..\..\JOCN-master\task a\images\quaker_chewy_peanut butter choc chip.jpg ..\..\JOCN-master\task a\images\emerald_cashews.jpg ..\..\JOCN-master\task a\images\snyders_mini_pretzels.jpg ..\..\JOCN-master\task a\images\milkyway_orginal_candy.jpg ..\..\JOCN-master\task a\images\emerald_natural_almonds.jpg ..\..\JOCN-master\task a\images\kettle_bbq.jpg,6,1.9057787669,..\..\JOCN-master\task a\images\milkyway_orginal_candy.jpg,1.66237709264,5,7,4.26215801999,0,2
2,1.75,12,1.75 1.0 1.5,1.75,2.24337675393,$1.75,1.08255057607,5,6,n/a,1,1
2,1.0,3,1.75 0.75 1.25 1.0,1.0,2.08904081915,$1.75,2.04833718907,6,5,3.21900615341,0,1
4,0.5,2,1.75 1.0 0.5,0.5,5.28612872586e-06,$1.0,4.15340764448e-06,n/a,n/a,,1,1
2,1.5,6,1.0 1.5,1.5,2.20452327165,$1.5,2.64753815171,6,6,3.31700621912,0,1
2,1.5,6,1.5 0.5 0.75,1.5,1.63731702889,0.75,n/a,5,1,n/a,1,1
7,0.75,12,0.75 1.75 1.0 1.5,0.75,6.04131491855e-06,$1.0,4.15340764448e-06,n/a,n/a,,1,2
1,1.75,12,..\..\JOCN-master\task a\images\famous_amos_chocolate_chip.jpg ..\..\JOCN-master\task a\images\skittles_sour_candy.jpg ..\..\JOCN-master\task a\images\lays_classic_potato chips.jpg ..\..\JOCN-master\task a\images\swedish fish_original_candy.jpg ..\..\JOCN-master\task a\images\skittles_wild berry_candy.jpg ..\..\JOCN-master\task a\images\keebler_chips_deluxe.jpg ..\..\JOCN-master\task a\images\jacklinks_beef_jerky_original.jpg ..\..\JOCN-master\task a\images\garden_veggie straws_sea salt.jpg ..\..\JOCN-master\task a\images\sourpatch_watermelon_candy.jpg ..\..\JOCN-master\task a\images\doritos_cool ranch_chips.jpg ..\..\JOCN-master\task a\images\skittles_original_candy.jpg ..\..\JOCN-master\task a\images\m&m's_peanut_butter.jpg,12,1.82239826734,..\..\JOCN-master\task a\images\lays_classic_potato chips.jpg,1.18479918537,2,2,n/a,1,1
5,0.5,2,..\..\JOCN-master\task a\images\boulder_kettle_olive_oil.jpg ..\..\JOCN-master\task a\images\sun chips_french onion_chips.jpg,2,2.43744102656,..\..\JOCN-master\task a\images\boulder_kettle_olive_oil.jpg,1.99888235965,5,4,3.1089027226,0,2
3,1.5,12,..\..\JOCN-master\task a\images\keebler_chips_deluxe.jpg ..\..\JOCN-master\task a\images\nestle_babyruth_bar.jpg ..\..\JOCN-master\task a\images\sourpatchkids_original_candy.jpg ..\..\JOCN-master\task a\images\lays_kc masterpiece_barbecue chips.jpg ..\..\JOCN-master\task a\images\hersey_milk_chocolate.jpg ..\..\JOCN-master\task a\images\austin_peanut butter_cheese cracker.jpg ..\..\JOCN-master\task a\images\fig_newtons.jpg ..\..\JOCN-master\task a\images\m&m's_peanut_butter.jpg ..\..\JOCN-master\task a\images\nabisco_chips ahhoy_mini.jpg ..\..\JOCN-master\task a\images\lance_choc-o_cookies.jpg ..\..\JOCN-master\task a\images\fiber one_oats and choc_chewy bar.jpg ..\..\JOCN-master\task a\images\baked_lays_barbeque.jpg,12,6.04131491855e-06,..\..\JOCN-master\task a\images\m&m's_peanut_butter.jpg,9.81712946668e-06,n/a,n/a,,1,1
6,0.75,3,1.0 0.75,0.75,2.58560313121,$1.0,3.59760152875,4,5,3.49923634203,0,2
2,1.75,2,1.75 0.5 1.5,1.75,4.12927360547,$1.75,0.954607944237,7,6,n/a,1,1
4,1.5,2,1.0 0.75 1.5 1.75,1.5,6.41890801489e-06,$1.5,3.77581454813e-06,n/a,n/a,,1,1
6,1.75,12,1.5 1.75 0.75 1.25,1.75,2.25258029549,$1.75,3.87993635493,7,7,4.29308607307,0,2
5,1.0,2,..\..\JOCN-master\task a\images\pringles_sour cream and onion_potato crisps.jpg ..\..\JOCN-master\task a\images\teddy_grahams_chocolate.jpg,2,1.67815507785,..\..\JOCN-master\task a\images\pringles_sour cream and onion_potato crisps.jpg,1.74635454797,5,3,3.59358595277,0,2
6,1.75,6,..\..\JOCN-master\task a\images\nabisco_teddy graham_honey.jpg ..\..\JOCN-master\task a\images\sunchips_harvest cheddar_chips.jpg ..\..\JOCN-master\task a\images\fig_newtons.jpg ..\..\JOCN-master\task a\images\starburst_orignal_candy.jpg ..\..\JOCN-master\task a\images\jacklinks_beef_stick.jpg ..\..\JOCN-master\task a\images\twix_milk chocolate_cookie bars.jpg,6,2.04663240997,..\..\JOCN-master\task a\images\jacklinks_beef_stick.jpg,1.55370809272,5,7,3.4646816217,0,2
5,1.0,3,..\..\JOCN-master\task a\images\sourpatch_watermelon_candy.jpg ..\..\JOCN-master\task a\images\m&m's_peanut.jpg ..\..\JOCN-master\task a\images\kettle_original.jpg,3,3.89030662237,..\..\JOCN-master\task a\images\m&m's_peanut.jpg,1.35229231429,5,7,3.80306308967,0,2
5,0.75,3,..\..\JOCN-master\task a\images\special_k_pastry_crisps_strawberry.jpg ..\..\JOCN-master\task a\images\belvita_blueberry.JPG ..\..\JOCN-master\task a\images\nestle_crunch_bar.jpg,3,1.25267318048,..\..\JOCN-master\task a\images\nestle_crunch_bar.jpg,1.2754643588,6,5,3.41551337641,0,2
4,1.75,2,1.75 1.5 1.0 0.5,1.75,6.04131491855e-06,$1.0,1.24602229334e-05,n/a,n/a,,1,1
1,1.0,12,..\..\JOCN-master\task a\images\twix_milk chocolate_cookie bars.jpg ..\..\JOCN-master\task a\images\poptarts_strawberry_frosted.jpg ..\..\JOCN-master\task a\images\skittles_original_candy.jpg ..\..\JOCN-master\task a\images\special_k_pastry_crisps_strawberry.jpg ..\..\JOCN-master\task a\images\quaker_chewy_chocolate chip.jpg ..\..\JOCN-master\task a\images\cheez itz_original.jpg ..\..\JOCN-master\task a\images\pepperidge farms-goldish-cheddar.jpg ..\..\JOCN-master\task a\images\poptarts_brown_sugar.jpg ..\..\JOCN-master\task a\images\boulder_kettle_hickory_bbq.jpg ..\..\JOCN-master\task a\images\welch's_white_grape_raspberry.jpg ..\..\JOCN-master\task a\images\special_k_pastry_crisps_blueberry.jpg ..\..\JOCN-master\task a\images\nabisco_oreo_mini.jpg,12,2.60185913427,..\..\JOCN-master\task a\images\twix_milk chocolate_cookie bars.jpg,4.35303577164,6,7,2.91680980142,0,1
